time /s	I /nA	E /V
0.100	19.072	0.099
0.200	-4.661	0.099
0.300	-7.294	0.099
0.400	-11.105	0.099
0.500	-10.806	0.099
0.600	2.348	0.099
0.700	-17.232	0.099
0.800	-6.757	0.099
0.900	2.858	0.099
1.000	2.833	0.099
1.100	-14.111	0.099
1.200	4.401	0.099
1.300	0.240	0.099
1.400	-8.527	0.099
1.500	-12.946	0.099
1.600	-23.591	0.099
1.700	3.635	0.099
1.800	-1.873	0.099
1.900	-0.757	0.099
2.000	-3.484	0.099
2.100	-1.623	0.099
2.200	-1.230	0.099
2.300	-9.692	0.099
2.400	-12.658	0.099
2.500	-31.782	0.099
2.600	0.520	0.099
2.700	2.398	0.099
2.800	-6.815	0.099
2.900	-9.679	0.099
3.000	-14.059	0.099
3.100	-9.630	0.099
3.200	-4.425	0.099
3.300	4.413	0.099
3.400	1.631	0.099
3.500	-16.280	0.099
3.600	-17.000	0.099
3.700	-9.199	0.099
3.800	-7.911	0.099
3.900	-6.186	0.099
4.000	-11.179	0.099
4.100	-12.191	0.099
4.200	-3.890	0.099
4.300	-9.100	0.099
4.400	9.399	0.099
4.500	-9.472	0.099
4.600	-22.154	0.099
4.700	1.782	0.099
4.800	-6.065	0.099
4.900	-2.788	0.099
5.000	-20.482	0.099
5.100	11.515	0.099
5.200	-30.638	0.099
5.300	-21.479	0.099
5.400	0.451	0.099
5.500	0.345	0.099
5.600	-15.307	0.099
5.700	-9.096	0.099
5.800	6.030	0.099
5.900	-12.631	0.099
6.000	-7.233	0.099
6.100	-1.361	0.099
6.200	3.241	0.099
6.300	-6.759	0.099
6.400	-16.498	0.099
6.500	-17.306	0.099
6.600	4.454	0.099
6.700	-8.157	0.099
6.800	-1.213	0.099
6.900	1.096	0.099
7.000	-11.083	0.099
7.100	10.200	0.099
7.200	-12.969	0.099
7.300	6.919	0.099
7.400	-16.157	0.099
7.500	-15.991	0.099
7.600	12.563	0.099
7.700	-8.739	0.099
7.800	-1.588	0.099
7.900	-11.210	0.099
8.000	13.361	0.099
8.100	5.640	0.099
8.200	-19.779	0.099
8.300	-22.655	0.099
8.400	4.613	0.099
8.500	-8.221	0.099
8.600	-3.929	0.099
8.700	2.643	0.099
8.800	-2.201	0.099
8.900	2.984	0.099
9.000	-8.478	0.099
9.100	-1.569	0.099
9.200	5.468	0.099
9.300	-0.958	0.099
9.400	6.174	0.099
9.500	-24.895	0.099
9.600	-1.290	0.099
9.700	-8.928	0.099
9.800	-10.342	0.099
9.900	-8.829	0.099
10.000	-19.252	0.099
10.100	3.093	0.099
10.200	-8.658	0.099
10.300	-9.913	0.099
10.400	8.510	0.099
10.500	-16.944	0.099
10.600	15.277	0.099
10.700	-24.570	0.099
10.800	-6.841	0.099
10.900	3.334	0.099
11.000	-20.493	0.099
11.100	-1.437	0.099
11.200	-7.576	0.099
11.300	-4.559	0.099
11.400	0.736	0.099
11.500	-8.209	0.099
11.600	-18.175	0.099
11.700	10.988	0.099
11.800	-2.322	0.099
11.900	-9.792	0.099
12.000	-31.476	0.099
12.100	-0.107	0.099
12.200	12.657	0.099
12.300	-7.283	0.099
12.400	6.344	0.099
12.500	-17.235	0.099
12.600	-11.793	0.099
12.700	-9.113	0.099
12.800	-5.028	0.099
12.900	-6.784	0.099
13.000	1.369	0.099
13.100	-2.634	0.099
13.200	-3.750	0.099
13.300	-13.885	0.099
13.400	-7.839	0.099
13.500	-7.459	0.099
13.600	-7.079	0.099
13.700	-5.164	0.099
13.800	-11.488	0.099
13.900	4.733	0.099
14.000	-7.648	0.099
14.100	-5.665	0.099
14.200	-14.297	0.099
14.300	-22.402	0.099
14.400	17.178	0.099
14.500	-0.867	0.099
14.600	-5.277	0.099
14.700	-15.910	0.099
14.800	-3.880	0.099
14.900	-12.112	0.099
15.000	-3.014	0.099
15.100	-4.576	0.099
15.200	14.912	0.099
15.300	-6.023	0.099
15.400	-5.171	0.099
15.500	-20.922	0.099
15.600	-7.327	0.099
15.700	-27.826	0.099
15.800	-0.182	0.099
15.900	-2.215	0.099
16.000	5.746	0.099
16.100	-6.126	0.099
16.200	12.951	0.099
16.300	-11.390	0.099
16.400	10.022	0.099
16.500	-19.590	0.099
16.600	-17.169	0.099
16.700	-3.066	0.099
16.800	1.995	0.099
16.900	-12.105	0.099
17.000	-13.191	0.099
17.100	3.137	0.099
17.200	-5.354	0.099
17.300	-2.233	0.099
17.400	-0.499	0.099
17.500	-16.676	0.099
17.600	1.674	0.099
17.700	-8.024	0.099
17.800	6.146	0.099
17.900	-9.759	0.099
18.000	-9.705	0.099
18.100	-2.003	0.099
18.200	-7.101	0.099
18.300	-3.940	0.099
18.400	-1.077	0.099
18.500	-1.172	0.099
18.600	-4.914	0.099
18.700	-3.401	0.099
18.800	-8.383	0.099
18.900	2.188	0.099
19.000	-15.835	0.099
19.100	1.487	0.099
19.200	-24.792	0.099
19.300	6.703	0.100
19.400	22.953	0.099
19.500	-8.215	0.099
19.600	-1.791	0.100
19.700	2.820	0.100
19.800	-5.930	0.100
19.900	-14.471	0.100
20.000	-4.445	0.100
20.100	-20.355	0.100
20.200	-21.018	0.100
20.300	-1.264	0.100
20.400	-4.359	0.100
20.500	1.890	0.100
20.600	-2.112	0.100
20.700	-0.905	0.100
20.800	-17.014	0.100
20.900	0.219	0.100
21.000	-14.952	0.100
21.100	-9.125	0.100
21.200	-5.235	0.100
21.300	4.143	0.099
21.400	0.035	0.100
21.500	4.416	0.100
21.600	2.733	0.099
21.700	3.102	0.100
21.800	-5.801	0.100
21.900	-12.310	0.099
22.000	-21.093	0.099
22.100	5.528	0.099
22.200	-20.973	0.099
22.300	-14.284	0.100
22.400	3.738	0.100
22.500	-12.983	0.099
22.600	-0.381	0.099
22.700	-7.605	0.099
22.800	-9.485	0.100
22.900	-2.365	0.100
23.000	-2.108	0.099
23.100	3.214	0.100
23.200	-16.950	0.099
23.300	-0.643	0.099
23.400	4.910	0.100
23.500	-13.501	0.099
23.600	-13.112	0.099
23.700	15.551	0.099
23.800	-8.779	0.099
23.900	6.350	0.099
24.000	-17.640	0.099
24.100	-0.551	0.099
24.200	4.645	0.099
24.300	-12.570	0.099
24.400	16.417	0.099
24.500	4.018	0.099
24.600	11.422	0.099
24.700	-7.942	0.099
24.800	-4.908	0.100
24.900	-11.892	0.100
25.000	1.077	0.100
25.100	-5.063	0.100
25.200	2.632	0.100
25.300	-6.495	0.100
25.400	-13.780	0.100
25.500	1.284	0.099
25.600	-5.089	0.099
25.700	-2.407	0.100
25.800	-4.516	0.099
25.900	-9.440	0.099
26.000	-11.646	0.099
26.100	-13.482	0.099
26.200	-16.216	0.099
26.300	-20.251	0.099
26.400	-1.470	0.099
26.500	3.195	0.099
26.600	3.703	0.099
26.700	-14.868	0.099
26.800	-5.114	0.099
26.900	-1.865	0.099
27.000	-5.320	0.099
27.100	-2.646	0.100
27.200	1.454	0.099
27.300	-23.824	0.099
27.400	-7.934	0.100
27.500	-3.932	0.099
27.600	3.003	0.099
27.700	-1.852	0.099
27.800	3.784	0.099
27.900	-8.655	0.099
28.000	-10.520	0.099
28.100	-18.804	0.099
28.200	-2.720	0.099
28.300	3.778	0.099
28.400	-12.684	0.099
28.500	1.475	0.099
28.600	-19.276	0.099
28.700	-10.786	0.099
28.800	-0.174	0.099
28.900	0.030	0.099
29.000	3.968	0.100
29.100	-9.641	0.099
29.200	-1.092	0.099
29.300	8.448	0.099
29.400	-12.312	0.099
29.500	-8.704	0.099
29.600	-8.185	0.099
29.700	5.246	0.099
29.800	-6.952	0.099
29.900	-5.727	0.099
30.000	4.276	0.099
30.100	-25.883	0.099
30.200	-5.031	0.099
30.300	-9.249	0.099
30.400	-2.475	0.099
30.500	-17.625	0.099
30.600	1.774	0.099
30.700	13.181	0.099
30.800	-6.510	0.099
30.900	-4.481	0.099
31.000	11.668	0.099
31.100	9.620	0.099
31.200	-0.044	0.099
31.300	8.748	0.099
31.400	22.709	0.099
31.500	5.517	0.099
31.600	3.654	0.099
31.700	-1.632	0.100
31.800	24.599	0.099
31.900	22.288	0.100
32.000	16.066	0.100
32.100	9.628	0.099
32.200	9.677	0.099
32.300	26.118	0.099
32.400	20.352	0.100
32.500	23.300	0.099
32.600	16.358	0.099
32.700	14.871	0.099
32.800	31.533	0.099
32.900	17.108	0.100
33.000	19.617	0.099
33.100	9.958	0.099
33.200	24.279	0.099
33.300	14.292	0.099
33.400	14.224	0.099
33.500	40.429	0.100
33.600	26.560	0.099
33.700	28.386	0.099
33.800	26.575	0.100
33.900	26.298	0.099
34.000	47.027	0.100
34.100	16.369	0.099
34.200	25.243	0.099
34.300	37.424	0.099
34.400	26.469	0.100
34.500	41.892	0.099
34.600	28.978	0.099
34.700	35.659	0.099
34.800	34.922	0.099
34.900	11.993	0.099
35.000	39.028	0.099
35.100	38.328	0.099
35.200	24.377	0.099
35.300	37.221	0.099
35.400	24.141	0.100
35.500	24.998	0.099
35.600	34.708	0.100
35.700	19.734	0.099
35.800	54.499	0.100
35.900	25.798	0.100
36.000	38.209	0.099
36.100	27.852	0.100
36.200	36.930	0.099
36.300	30.339	0.099
36.400	28.975	0.099
36.500	36.279	0.099
36.600	22.153	0.099
36.700	31.659	0.099
36.800	28.517	0.100
36.900	36.653	0.099
37.000	37.159	0.100
37.100	32.151	0.100
37.200	23.157	0.099
37.300	16.571	0.100
37.400	34.896	0.099
37.500	49.963	0.100
37.600	17.606	0.099
37.700	23.894	0.100
37.800	28.909	0.099
37.900	5.383	0.099
38.000	36.648	0.100
38.100	32.518	0.100
38.200	12.772	0.099
38.300	11.956	0.100
38.400	45.704	0.100
38.500	18.214	0.099
38.600	21.083	0.099
38.700	36.949	0.100
38.800	7.428	0.099
38.900	8.586	0.099
39.000	29.013	0.099
39.100	23.395	0.100
39.200	30.096	0.100
39.300	2.469	0.100
39.400	40.368	0.099
39.500	37.839	0.100
39.600	22.915	0.100
39.700	28.587	0.100
39.800	13.902	0.100
39.900	8.089	0.099
40.000	25.315	0.100
40.100	18.279	0.099
40.200	15.792	0.099
40.300	19.455	0.099
40.400	14.217	0.100
40.500	22.270	0.100
40.600	11.879	0.099
40.700	33.605	0.100
40.800	28.084	0.100
40.900	22.046	0.100
41.000	13.552	0.100
41.100	2.314	0.100
41.200	17.573	0.100
41.300	10.999	0.099
41.400	14.755	0.099
41.500	22.351	0.099
41.600	25.942	0.099
41.700	25.664	0.100
41.800	9.048	0.099
41.900	8.052	0.099
42.000	16.369	0.099
42.100	23.110	0.099
42.200	18.440	0.099
42.300	9.099	0.099
42.400	21.163	0.100
42.500	0.089	0.100
42.600	22.328	0.099
42.700	8.325	0.099
42.800	9.327	0.099
42.900	4.197	0.099
43.000	5.607	0.099
43.100	4.005	0.099
43.200	3.568	0.100
43.300	20.903	0.099
43.400	-6.364	0.100
43.500	10.395	0.099
43.600	20.066	0.099
43.700	20.792	0.099
43.800	13.821	0.100
43.900	-0.942	0.099
44.000	6.313	0.100
44.100	4.931	0.100
44.200	19.621	0.100
44.300	5.127	0.100
44.400	29.535	0.100
44.500	9.937	0.100
44.600	1.264	0.100
44.700	15.798	0.100
44.800	10.078	0.100
44.900	23.873	0.099
45.000	4.167	0.099
45.100	3.681	0.100
45.200	24.032	0.100
45.300	21.658	0.100
45.400	-5.888	0.100
45.500	-12.469	0.099
45.600	15.555	0.100
45.700	18.419	0.099
45.800	7.652	0.100
45.900	9.564	0.100
46.000	2.366	0.100
46.100	-12.975	0.099
46.200	9.207	0.099
46.300	11.293	0.099
46.400	8.620	0.099
46.500	10.467	0.100
46.600	17.869	0.100
46.700	-7.248	0.100
46.800	4.821	0.099
46.900	13.433	0.100
47.000	19.177	0.100
47.100	1.965	0.099
47.200	11.892	0.099
47.300	24.425	0.100
47.400	8.875	0.100
47.500	-10.100	0.100
47.600	31.777	0.100
47.700	-3.039	0.100
47.800	20.954	0.099
47.900	2.342	0.099
48.000	0.955	0.099
48.100	19.209	0.099
48.200	8.395	0.099
48.300	5.092	0.099
48.400	19.143	0.100
48.500	11.710	0.100
48.600	-4.479	0.100
48.700	7.733	0.099
48.800	16.032	0.100
48.900	13.175	0.100
49.000	12.265	0.099
49.100	6.310	0.100
49.200	-2.372	0.099
49.300	6.382	0.099
49.400	18.826	0.099
49.500	17.736	0.100
49.600	-0.148	0.099
49.700	14.910	0.099
49.800	-21.807	0.099
49.900	15.372	0.100
50.000	7.418	0.099
50.100	6.325	0.099
50.200	30.142	0.099
50.300	0.381	0.100
50.400	16.123	0.099
50.500	10.953	0.099
50.600	20.394	0.099
50.700	8.754	0.099
50.800	10.282	0.099
50.900	12.172	0.099
51.000	-4.718	0.099
51.100	18.389	0.100
51.200	8.029	0.100
51.300	2.549	0.100
51.400	11.676	0.099
51.500	6.975	0.099
51.600	9.235	0.099
51.700	-1.173	0.099
51.800	24.859	0.099
51.900	19.491	0.099
52.000	14.378	0.099
52.100	11.913	0.099
52.200	0.785	0.099
52.300	6.911	0.099
52.400	26.277	0.099
52.500	3.897	0.099
52.600	38.140	0.100
52.700	0.238	0.099
52.800	10.508	0.099
52.900	12.900	0.100
53.000	12.884	0.099
53.100	20.090	0.099
53.200	13.600	0.099
53.300	17.517	0.099
53.400	6.861	0.100
53.500	24.163	0.099
53.600	25.083	0.100
53.700	19.604	0.099
53.800	23.247	0.099
53.900	23.780	0.099
54.000	26.897	0.099
54.100	-2.213	0.099
54.200	27.389	0.100
54.300	1.017	0.099
54.400	22.510	0.099
54.500	-1.961	0.100
54.600	6.357	0.099
54.700	4.321	0.099
54.800	14.623	0.099
54.900	24.804	0.100
55.000	12.248	0.100
55.100	6.057	0.099
55.200	12.924	0.099
55.300	16.334	0.100
55.400	21.411	0.099
55.500	24.149	0.100
55.600	7.008	0.100
55.700	20.454	0.099
55.800	11.824	0.099
55.900	20.741	0.099
56.000	29.694	0.099
56.100	13.146	0.099
56.200	24.519	0.100
56.300	3.879	0.100
56.400	14.893	0.100
56.500	23.453	0.100
56.600	21.705	0.100
56.700	19.879	0.099
56.800	27.178	0.099
56.900	26.237	0.099
57.000	1.401	0.100
57.100	11.794	0.100
57.200	16.313	0.099
57.300	24.349	0.100
57.400	-2.940	0.099
57.500	31.128	0.099
57.600	17.029	0.100
57.700	10.580	0.099
57.800	6.975	0.099
57.900	33.202	0.099
58.000	15.294	0.099
58.100	-3.810	0.100
58.200	-6.638	0.099
58.300	35.430	0.099
58.400	5.724	0.099
58.500	28.739	0.099
58.600	11.419	0.100
58.700	32.396	0.100
58.800	13.670	0.099
58.900	5.391	0.099
59.000	17.642	0.099
59.100	24.059	0.099
59.200	19.927	0.099
59.300	17.248	0.099
59.400	20.210	0.099
59.500	27.700	0.099
59.600	17.263	0.099
59.700	3.908	0.100
59.800	21.789	0.100
59.900	1.680	0.099
60.000	12.901	0.099
60.100	23.430	0.099
60.200	4.370	0.099
60.300	15.718	0.099
60.400	19.118	0.099
60.500	22.458	0.099
60.600	21.406	0.100
60.700	18.562	0.099
60.800	12.487	0.099
60.900	10.976	0.099
61.000	22.233	0.099
61.100	20.796	0.099
61.200	30.267	0.099
61.300	21.861	0.099
61.400	10.262	0.099
61.500	0.153	0.099
61.600	29.846	0.099
61.700	11.447	0.099
61.800	23.379	0.099
61.900	31.318	0.099
62.000	13.560	0.099
62.100	-11.403	0.099
62.200	15.196	0.099
62.300	30.167	0.099
62.400	20.235	0.099
62.500	20.973	0.099
62.600	30.310	0.099
62.700	15.053	0.100
62.800	24.888	0.100
62.900	28.738	0.099
63.000	5.267	0.100
63.100	22.405	0.100
63.200	7.241	0.099
63.300	24.332	0.100
63.400	3.171	0.100
63.500	21.094	0.100
63.600	-6.995	0.100
63.700	19.293	0.100
63.800	13.114	0.099
63.900	24.129	0.099
64.000	16.565	0.099
64.100	21.176	0.099
64.200	10.878	0.099
64.300	-1.214	0.099
64.400	12.451	0.099
64.500	8.544	0.099
64.600	28.895	0.099
64.700	15.645	0.100
64.800	15.967	0.100
64.900	9.393	0.099
65.000	17.902	0.100
65.100	23.453	0.100
65.200	31.021	0.100
65.300	19.804	0.099
65.400	1.584	0.100
65.500	11.900	0.099
65.600	19.875	0.099
65.700	0.905	0.099
65.800	24.822	0.100
65.900	19.963	0.100
66.000	22.753	0.099
66.100	31.977	0.100
66.200	2.719	0.099
66.300	20.153	0.099
66.400	17.536	0.100
66.500	-1.771	0.099
66.600	4.704	0.100
66.700	33.370	0.100
66.800	20.275	0.099
66.900	5.025	0.099
67.000	39.316	0.100
67.100	14.502	0.100
67.200	35.288	0.099
67.300	27.594	0.099
67.400	-12.479	0.100
67.500	42.451	0.100
67.600	-2.547	0.099
67.700	19.927	0.099
67.800	11.445	0.100
67.900	33.078	0.100
68.000	17.147	0.099
68.100	22.585	0.100
68.200	17.298	0.099
68.300	25.927	0.100
68.400	17.724	0.100
68.500	0.353	0.099
68.600	30.394	0.099
68.700	18.091	0.100
68.800	17.487	0.100
68.900	25.470	0.100
69.000	17.605	0.100
69.100	25.822	0.099
69.200	8.212	0.100
69.300	24.490	0.100
69.400	8.313	0.100
69.500	26.599	0.100
69.600	35.050	0.100
69.700	18.518	0.100
69.800	23.524	0.100
69.900	13.834	0.100
70.000	23.198	0.100
70.100	21.821	0.099
70.200	2.020	0.099
70.300	27.862	0.100
70.400	16.254	0.099
70.500	5.768	0.100
70.600	7.328	0.099
70.700	29.439	0.100
70.800	17.230	0.100
70.900	16.638	0.099
71.000	15.945	0.099
71.100	28.235	0.099
71.200	9.531	0.100
71.300	3.518	0.100
71.400	17.393	0.099
71.500	19.501	0.100
71.600	22.253	0.100
71.700	29.738	0.100
71.800	2.115	0.100
71.900	6.986	0.100
72.000	26.050	0.099
72.100	7.089	0.100
72.200	23.455	0.099
72.300	14.869	0.100
72.400	26.420	0.099
72.500	18.751	0.100
72.600	10.546	0.100
72.700	30.481	0.099
72.800	31.603	0.100
72.900	33.563	0.099
73.000	17.108	0.100
73.100	12.028	0.100
73.200	13.886	0.100
73.300	15.893	0.100
73.400	19.958	0.100
73.500	14.643	0.100
73.600	12.944	0.100
73.700	6.142	0.099
73.800	27.018	0.100
73.900	13.539	0.100
74.000	11.668	0.099
74.100	15.011	0.099
74.200	16.607	0.100
74.300	22.244	0.100
74.400	23.580	0.099
74.500	31.908	0.099
74.600	17.171	0.100
74.700	25.627	0.100
74.800	19.446	0.100
74.900	13.095	0.100
75.000	1.432	0.099
75.100	14.742	0.099
75.200	15.400	0.099
75.300	23.925	0.100
75.400	28.085	0.100
75.500	18.154	0.100
75.600	18.538	0.099
75.700	22.580	0.099
75.800	13.248	0.100
75.900	13.002	0.100
76.000	30.513	0.099
76.100	24.107	0.100
76.200	27.848	0.099
76.300	29.896	0.099
76.400	18.328	0.100
76.500	20.513	0.099
76.600	25.212	0.099
76.700	-4.038	0.099
76.800	10.531	0.099
76.900	44.491	0.100
77.000	7.584	0.100
77.100	17.457	0.100
77.200	15.057	0.099
77.300	4.796	0.099
77.400	27.670	0.099
77.500	30.605	0.100
77.600	33.624	0.099
77.700	14.659	0.099
77.800	27.909	0.099
77.900	28.797	0.100
78.000	14.180	0.099
78.100	9.910	0.099
78.200	27.396	0.100
78.300	25.260	0.100
78.400	-4.877	0.099
78.500	26.095	0.100
78.600	21.469	0.099
78.700	12.908	0.100
78.800	26.848	0.100
78.900	24.600	0.100
79.000	23.972	0.099
79.100	4.383	0.100
79.200	34.664	0.100
79.300	16.585	0.100
79.400	15.768	0.099
79.500	30.600	0.100
79.600	20.526	0.100
79.700	24.475	0.100
79.800	15.363	0.100
79.900	-6.089	0.099
80.000	21.737	0.099
80.100	20.973	0.099
80.200	26.565	0.100
80.300	20.460	0.099
80.400	-2.243	0.100
80.500	16.733	0.099
80.600	16.940	0.100
80.700	5.029	0.099
80.800	10.431	0.099
80.900	26.151	0.100
81.000	16.938	0.099
81.100	16.198	0.100
81.200	12.535	0.100
81.300	19.245	0.100
81.400	31.594	0.099
81.500	37.435	0.099
81.600	6.756	0.100
81.700	12.760	0.099
81.800	20.453	0.100
81.900	20.897	0.100
82.000	-2.963	0.099
82.100	21.715	0.100
82.200	30.963	0.099
82.300	20.190	0.100
82.400	17.781	0.099
82.500	21.067	0.100
82.600	29.899	0.099
82.700	13.560	0.099
82.800	22.066	0.100
82.900	17.867	0.100
83.000	31.305	0.100
83.100	21.947	0.099
83.200	12.838	0.100
83.300	18.655	0.099
83.400	26.177	0.100
83.500	7.049	0.099
83.600	10.190	0.099
83.700	35.157	0.099
83.800	33.161	0.100
83.900	20.214	0.099
84.000	12.326	0.100
84.100	18.153	0.100
84.200	14.000	0.100
84.300	5.776	0.100
84.400	36.032	0.100
84.500	24.486	0.100
84.600	25.372	0.099
84.700	25.917	0.100
84.800	18.635	0.100
84.900	35.465	0.099
85.000	28.029	0.099
85.100	23.599	0.099
85.200	19.749	0.100
85.300	25.601	0.100
85.400	33.388	0.100
85.500	17.804	0.100
85.600	11.862	0.099
85.700	27.140	0.100
85.800	22.894	0.100
85.900	21.484	0.100
86.000	14.038	0.100
86.100	21.773	0.100
86.200	31.348	0.100
86.300	16.713	0.099
86.400	8.816	0.100
86.500	29.073	0.099
86.600	27.033	0.100
86.700	25.499	0.099
86.800	24.895	0.099
86.900	17.739	0.099
87.000	14.349	0.100
87.100	26.711	0.099
87.200	19.746	0.099
87.300	24.574	0.100
87.400	18.018	0.099
87.500	23.912	0.100
87.600	4.822	0.100
87.700	14.215	0.099
87.800	33.051	0.100
87.900	27.231	0.100
88.000	24.255	0.099
88.100	16.889	0.099
88.200	24.248	0.100
88.300	15.480	0.100
88.400	31.564	0.100
88.500	33.628	0.099
88.600	-0.562	0.099
88.700	13.568	0.099
88.800	0.662	0.099
88.900	46.848	0.099
89.000	19.780	0.099
89.100	4.419	0.100
89.200	19.496	0.099
89.300	-4.740	0.099
89.400	46.588	0.100
89.500	13.693	0.099
89.600	18.179	0.099
89.700	31.952	0.100
89.800	21.232	0.099
89.900	25.459	0.099
90.000	47.805	0.099
90.100	15.319	0.099
90.200	33.028	0.099
90.300	6.637	0.100
90.400	20.361	0.099
90.500	5.485	0.099
90.600	12.816	0.099
90.700	25.835	0.099
90.800	5.260	0.099
90.900	-4.766	0.099
91.000	15.884	0.099
91.100	16.998	0.100
91.200	-1.633	0.099
91.300	-4.766	0.100
91.400	-6.121	0.099
91.500	3.775	0.099
91.600	-13.051	0.099
91.700	-6.087	0.099
91.800	0.947	0.099
91.900	-33.069	0.099
92.000	5.052	0.099
92.100	6.858	0.099
92.200	-21.938	0.100
92.300	-6.862	0.100
92.400	-13.043	0.099
92.500	-19.338	0.099
92.600	-19.551	0.099
92.700	-4.258	0.099
92.800	-18.928	0.099
92.900	-9.752	0.099
93.000	-1.473	0.100
93.100	-5.950	0.099
93.200	-18.521	0.099
93.300	-36.329	0.099
93.400	-10.891	0.100
93.500	-7.263	0.099
93.600	1.538	0.100
93.700	-16.373	0.099
93.800	-12.149	0.099
93.900	-6.942	0.099
94.000	-31.998	0.099
94.100	-25.967	0.099
94.200	11.786	0.100
94.300	-6.659	0.099
94.400	-7.023	0.100
94.500	-17.540	0.099
94.600	-13.743	0.100
94.700	-19.995	0.099
94.800	-14.404	0.099
94.900	-12.883	0.100
95.000	-19.445	0.099
95.100	-1.010	0.100
95.200	-20.662	0.100
95.300	-38.557	0.100
95.400	-10.406	0.100
95.500	-16.999	0.100
95.600	-9.264	0.099
95.700	-26.622	0.100
95.800	-27.209	0.099
95.900	-16.238	0.100
96.000	-23.387	0.100
96.100	-10.377	0.099
96.200	-22.256	0.100
96.300	-37.340	0.100
96.400	4.047	0.100
96.500	-29.818	0.100
96.600	-22.934	0.100
96.700	-3.036	0.099
96.800	-21.502	0.099
96.900	-25.607	0.100
97.000	-19.116	0.100
97.100	-10.351	0.100
97.200	-16.554	0.100
97.300	-10.127	0.100
97.400	-22.773	0.099
97.500	-6.166	0.100
97.600	-20.383	0.100
97.700	-29.590	0.099
97.800	-28.112	0.099
97.900	-16.280	0.100
98.000	-11.077	0.100
98.100	-7.312	0.100
98.200	-8.828	0.100
98.300	-8.743	0.099
98.400	-13.455	0.100
98.500	-11.244	0.100
98.600	-19.946	0.100
98.700	-21.012	0.100
98.800	-19.751	0.100
98.900	-6.708	0.100
99.000	-13.227	0.100
99.100	-24.676	0.099
99.200	-21.570	0.100
99.300	-12.781	0.100
99.400	-3.955	0.100
99.500	-29.158	0.099
99.600	-11.464	0.100
99.700	-20.042	0.100
99.800	-7.009	0.099
99.900	-18.183	0.100
100.000	-2.088	0.099
100.100	-15.243	0.100
100.200	-12.163	0.099
100.300	-16.934	0.099
100.400	4.032	0.100
100.500	-16.261	0.099
100.600	-23.459	0.100
100.700	5.258	0.100
100.800	-15.412	0.099
100.900	-15.639	0.100
101.000	4.500	0.099
101.100	-33.587	0.099
101.200	-4.102	0.100
101.300	-12.256	0.100
101.400	-10.628	0.099
101.500	-13.334	0.099
101.600	-1.058	0.099
101.700	-2.634	0.100
101.800	-13.147	0.099
101.900	-23.753	0.099
102.000	6.695	0.099
102.100	-17.325	0.100
102.200	-21.678	0.100
102.300	-1.355	0.099
102.400	-11.661	0.100
102.500	-21.493	0.099
102.600	3.017	0.100
102.700	-15.286	0.099
102.800	-11.326	0.099
102.900	-25.664	0.100
103.000	2.496	0.100
103.100	-5.552	0.099
103.200	-10.191	0.099
103.300	-10.894	0.099
103.400	-18.610	0.099
103.500	-7.172	0.100
103.600	-10.001	0.100
103.700	-2.599	0.100
103.800	-4.909	0.099
103.900	-19.611	0.100
104.000	5.680	0.100
104.100	-26.842	0.099
104.200	4.502	0.100
104.300	-25.940	0.099
104.400	-19.570	0.100
104.500	-11.620	0.099
104.600	-8.648	0.099
104.700	-9.915	0.099
104.800	-18.162	0.099
104.900	-0.219	0.099
105.000	-28.430	0.099
105.100	14.080	0.099
105.200	-1.360	0.100
105.300	-4.157	0.100
105.400	-8.324	0.099
105.500	-4.394	0.099
105.600	-11.838	0.099
105.700	-8.066	0.099
105.800	-10.419	0.100
105.900	-10.082	0.100
106.000	-11.105	0.099
106.100	-1.101	0.099
106.200	-21.176	0.099
106.300	-10.909	0.100
106.400	-17.886	0.099
106.500	0.476	0.099
106.600	-14.129	0.099
106.700	-16.297	0.099
106.800	9.288	0.100
106.900	-22.847	0.100
107.000	-21.533	0.099
107.100	5.399	0.099
107.200	7.654	0.100
107.300	-5.099	0.100
107.400	-18.623	0.099
107.500	-15.658	0.099
107.600	-9.515	0.099
107.700	-0.968	0.099
107.800	-17.603	0.099
107.900	-18.093	0.100
108.000	-11.102	0.099
108.100	1.189	0.100
108.200	-19.744	0.099
108.300	-32.045	0.099
108.400	-18.054	0.099
108.500	-5.324	0.100
108.600	-19.937	0.099
108.700	9.599	0.099
108.800	-12.545	0.099
108.900	-5.400	0.100
109.000	-7.668	0.100
109.100	-14.182	0.100
109.200	-10.337	0.099
109.300	-21.495	0.099
109.400	-13.061	0.100
109.500	1.573	0.099
109.600	-7.834	0.099
109.700	-8.562	0.099
109.800	-6.301	0.100
109.900	-6.559	0.099
110.000	-9.436	0.100
110.100	0.140	0.100
110.200	-8.131	0.099
110.300	-21.280	0.100
110.400	-22.112	0.099
110.500	-12.013	0.100
110.600	0.868	0.099
110.700	0.785	0.099
110.800	-13.434	0.099
110.900	-21.454	0.099
111.000	-5.668	0.100
111.100	-12.994	0.100
111.200	-14.166	0.099
111.300	-5.166	0.099
111.400	-3.985	0.100
111.500	-8.487	0.099
111.600	-27.961	0.100
111.700	-4.829	0.100
111.800	0.107	0.099
111.900	-12.496	0.099
112.000	-6.892	0.099
112.100	-2.903	0.099
112.200	-5.933	0.099
112.300	-8.683	0.099
112.400	4.332	0.100
112.500	-30.706	0.100
112.600	-2.489	0.099
112.700	-17.087	0.099
112.800	6.572	0.099
112.900	-21.959	0.099
113.000	-10.813	0.100
113.100	1.133	0.100
113.200	-1.527	0.100
113.300	-13.109	0.099
113.400	-8.575	0.099
113.500	-8.200	0.099
113.600	-4.293	0.099
113.700	-9.639	0.100
113.800	-15.852	0.100
113.900	1.409	0.099
114.000	-11.318	0.100
114.100	-8.798	0.100
114.200	-8.410	0.100
114.300	-15.387	0.099
114.400	-3.760	0.099
114.500	3.895	0.100
114.600	-25.739	0.100
114.700	-9.776	0.100
114.800	-28.802	0.100
114.900	-7.154	0.100
115.000	-8.247	0.100
115.100	0.162	0.099
115.200	-16.223	0.100
115.300	-13.457	0.100
115.400	-16.871	0.099
115.500	-7.570	0.100
115.600	-8.501	0.099
115.700	-10.335	0.100
115.800	-45.207	0.100
115.900	-7.141	0.100
116.000	0.293	0.099
116.100	-6.377	0.099
116.200	-11.946	0.100
116.300	-12.494	0.099
116.400	-15.734	0.099
116.500	-18.373	0.099
116.600	2.902	0.100
116.700	-16.359	0.100
116.800	-17.920	0.100
116.900	-9.338	0.100
117.000	-29.666	0.099
117.100	-10.034	0.100
117.200	-4.033	0.099
117.300	-13.406	0.099
117.400	-18.760	0.099
117.500	-7.691	0.099
117.600	3.893	0.100
117.700	-11.659	0.100
117.800	-8.442	0.100
117.900	-19.238	0.100
118.000	-26.764	0.100
118.100	-13.982	0.100
118.200	-12.956	0.100
118.300	-6.776	0.100
118.400	-10.971	0.099
118.500	-5.151	0.099
118.600	-16.845	0.100
118.700	-28.335	0.099
118.800	7.820	0.100
118.900	-13.823	0.100
119.000	1.816	0.100
119.100	-1.381	0.100
119.200	-14.896	0.100
119.300	-3.708	0.100
119.400	-23.591	0.099
119.500	-9.611	0.100
119.600	-14.667	0.099
119.700	-12.566	0.100
119.800	-14.392	0.100
119.900	-20.058	0.099
120.000	-5.130	0.099
120.100	-24.838	0.099
120.200	-14.516	0.100
120.300	14.261	0.100
120.400	-17.642	0.099
120.500	-9.466	0.100
120.600	2.816	0.099
120.700	-17.048	0.100
120.800	-14.874	0.099
120.900	-19.346	0.100
121.000	-1.155	0.099
121.100	-10.572	0.099
121.200	-5.392	0.099
121.300	-17.841	0.100
121.400	-10.485	0.100
121.500	-9.269	0.099
121.600	-4.664	0.099
121.700	-7.317	0.099
121.800	-4.946	0.100
121.900	-0.323	0.099
122.000	-12.107	0.100
122.100	-4.780	0.099
122.200	3.779	0.100
122.300	-29.466	0.099
122.400	-23.784	0.099
122.500	-8.692	0.099
122.600	-3.790	0.100
122.700	-6.999	0.099
122.800	-15.856	0.099
122.900	-3.351	0.099
123.000	-9.801	0.100
123.100	-11.938	0.099
123.200	-4.742	0.100
123.300	-16.460	0.099
123.400	-10.311	0.100
123.500	-12.144	0.099
123.600	-3.480	0.100
123.700	-8.557	0.099
123.800	-23.069	0.099
123.900	-1.091	0.099
124.000	-8.551	0.099
124.100	-4.802	0.100
124.200	-34.960	0.099
124.300	0.552	0.099
124.400	-5.632	0.099
124.500	-16.143	0.099
124.600	-2.048	0.099
124.700	-13.728	0.100
124.800	-11.409	0.099
124.900	-11.890	0.100
125.000	-20.838	0.099
125.100	-0.219	0.099
125.200	9.621	0.099
125.300	-25.656	0.099
125.400	-9.581	0.100
125.500	-13.620	0.099
125.600	-16.315	0.099
125.700	-1.908	0.099
125.800	-31.806	0.099
125.900	-5.094	0.099
126.000	-17.223	0.099
126.100	11.249	0.099
126.200	-25.347	0.099
126.300	-1.489	0.099
126.400	-5.303	0.099
126.500	-4.810	0.099
126.600	-3.091	0.099
126.700	-18.169	0.099
126.800	-2.841	0.100
126.900	-17.563	0.099
127.000	-21.796	0.100
127.100	-14.044	0.099
127.200	-12.510	0.099
127.300	-4.842	0.099
127.400	-2.411	0.099
127.500	-15.632	0.099
127.600	-18.285	0.099
127.700	-19.263	0.099
127.800	-6.726	0.099
127.900	-18.226	0.099
128.000	-15.104	0.099
128.100	-17.679	0.099
128.200	-6.214	0.099
128.300	-14.130	0.100
128.400	-13.840	0.099
128.500	-6.421	0.099
128.600	-31.741	0.099
128.700	-3.230	0.099
128.800	-8.840	0.099
128.900	-16.531	0.100
129.000	-8.241	0.100
129.100	-29.790	0.100
129.200	-11.779	0.099
129.300	-0.951	0.100
129.400	3.454	0.099
129.500	-20.143	0.100
129.600	-13.581	0.099
129.700	-11.245	0.100
129.800	1.199	0.100
129.900	-12.143	0.100
130.000	-14.963	0.100
130.100	-15.069	0.100
130.200	-5.431	0.100
130.300	3.283	0.100
130.400	-38.665	0.100
130.500	-11.102	0.100
130.600	-3.414	0.099
130.700	-0.855	0.099
130.800	-13.685	0.100
130.900	-17.306	0.099
131.000	-5.769	0.099
131.100	-5.175	0.099
131.200	-20.916	0.100
131.300	-19.271	0.100
131.400	-13.649	0.100
131.500	-14.452	0.100
131.600	-10.253	0.100
131.700	-14.142	0.100
131.800	-13.090	0.099
131.900	-8.908	0.100
132.000	-13.549	0.100
132.100	-3.816	0.100
132.200	-19.039	0.100
132.300	-23.475	0.100
132.400	-6.735	0.100
132.500	-25.276	0.099
132.600	-8.075	0.099
132.700	-16.781	0.099
132.800	-14.172	0.100
132.900	-11.804	0.099
133.000	-8.834	0.100
133.100	9.075	0.100
133.200	-14.900	0.100
133.300	-24.172	0.099
133.400	-8.892	0.100
133.500	-36.665	0.099
133.600	-4.292	0.100
133.700	-14.357	0.100
133.800	-13.752	0.100
133.900	7.506	0.100
134.000	-18.167	0.100
134.100	6.230	0.099
134.200	-19.313	0.100
134.300	3.429	0.099
134.400	-17.245	0.099
134.500	-36.916	0.099
134.600	-6.799	0.100
134.700	-11.630	0.099
134.800	-12.136	0.099
134.900	-4.245	0.099
135.000	-13.789	0.100
135.100	1.456	0.100
135.200	0.326	0.099
135.300	-20.334	0.099
135.400	-14.121	0.100
135.500	-2.289	0.099
135.600	2.605	0.099
135.700	-23.506	0.100
135.800	-12.453	0.100
135.900	-7.543	0.099
136.000	-3.987	0.099
136.100	-20.657	0.099
136.200	-22.037	0.099
136.300	7.317	0.099
136.400	-23.873	0.099
136.500	9.270	0.100
136.600	-2.167	0.100
136.700	-13.328	0.099
136.800	-16.003	0.100
136.900	-47.899	0.099
137.000	-0.685	0.099
137.100	-11.680	0.099
137.200	-17.460	0.099
137.300	-24.494	0.099
137.400	-5.375	0.099
137.500	-4.940	0.100
137.600	-4.055	0.099
137.700	-3.124	0.099
137.800	2.812	0.099
137.900	-16.669	0.100
138.000	-3.300	0.099
138.100	-20.234	0.100
138.200	-20.556	0.100
138.300	-12.644	0.100
138.400	4.514	0.100
138.500	11.705	0.100
138.600	-3.966	0.099
138.700	-20.970	0.099
138.800	-6.017	0.099
138.900	-23.462	0.100
139.000	-25.050	0.099
139.100	16.860	0.099
139.200	5.497	0.100
139.300	-12.801	0.100
139.400	-18.033	0.099
139.500	-17.369	0.099
139.600	-21.114	0.100
139.700	0.935	0.100
139.800	-1.838	0.100
139.900	-4.444	0.099
140.000	-3.180	0.099
140.100	1.389	0.099
140.200	-21.294	0.099
140.300	-8.871	0.100
140.400	-1.647	0.099
140.500	-3.919	0.099
140.600	6.202	0.099
140.700	-17.946	0.100
140.800	-6.842	0.099
140.900	-14.347	0.100
141.000	-15.272	0.099
141.100	12.205	0.099
141.200	-14.982	0.100
141.300	-1.843	0.099
141.400	-25.653	0.099
141.500	-19.102	0.099
141.600	-25.820	0.099
141.700	-6.251	0.099
141.800	-9.830	0.099
141.900	-8.044	0.100
142.000	-21.405	0.100
142.100	-28.186	0.099
142.200	4.610	0.100
142.300	-1.018	0.099
142.400	-7.914	0.100
142.500	-8.970	0.099
142.600	-13.500	0.100
142.700	-3.304	0.100
142.800	-26.674	0.100
142.900	-10.322	0.100
143.000	5.641	0.100
143.100	-14.291	0.100
143.200	-12.796	0.100
143.300	-1.606	0.100
143.400	-1.381	0.100
143.500	-1.208	0.099
143.600	-4.895	0.099
143.700	-29.578	0.099
143.800	-11.612	0.099
143.900	6.580	0.099
144.000	1.729	0.099
144.100	-1.028	0.099
144.200	-10.146	0.099
144.300	-12.018	0.100
144.400	-18.214	0.099
144.500	5.594	0.099
144.600	-7.236	0.100
144.700	-21.180	0.100
144.800	-21.842	0.100
144.900	-9.091	0.099
145.000	0.804	0.100
145.100	-27.238	0.099
145.200	-8.330	0.100
145.300	-0.436	0.100
145.400	-12.756	0.100
145.500	-2.857	0.100
145.600	-29.060	0.100
145.700	5.002	0.099
145.800	-6.089	0.100
145.900	6.313	0.099
146.000	-1.925	0.100
146.100	-26.207	0.100
146.200	-7.707	0.099
146.300	-11.008	0.099
146.400	-0.654	0.100
146.500	-24.793	0.100
146.600	2.678	0.099
146.700	-19.597	0.100
146.800	-20.178	0.099
146.900	-3.575	0.099
147.000	3.342	0.100
147.100	-23.145	0.099
147.200	-8.038	0.100
147.300	-6.893	0.100
147.400	-9.319	0.100
147.500	-11.637	0.099
147.600	-2.309	0.099
147.700	-4.034	0.100
147.800	-23.174	0.100
147.900	-14.888	0.099
148.000	-12.497	0.099
148.100	3.903	0.100
148.200	1.903	0.099
148.300	-14.003	0.100
148.400	-7.279	0.099
148.500	-10.870	0.100
148.600	-10.823	0.099
148.700	-6.018	0.100
148.800	-7.677	0.099
148.900	-4.823	0.099
149.000	-12.080	0.099
149.100	-3.237	0.100
149.200	-4.022	0.100
149.300	-9.434	0.100
149.400	-17.238	0.100
149.500	0.582	0.100
149.600	-28.034	0.099
149.700	-11.265	0.100
149.800	8.227	0.099
149.900	-6.618	0.099
150.000	1.597	0.099
150.100	-23.294	0.099
150.200	-19.111	0.099
150.300	3.325	0.099
150.400	-16.204	0.099
150.500	-28.446	0.099
150.600	-16.582	0.100
150.700	-23.682	0.099
150.800	-1.566	0.099
150.900	-1.872	0.100
151.000	1.537	0.099
151.100	-14.949	0.099
151.200	7.492	0.099
151.300	1.344	0.099
151.400	-7.695	0.100
151.500	5.485	0.099
151.600	-4.737	0.100
151.700	-16.166	0.100
151.800	-7.974	0.100
151.900	0.355	0.100
152.000	-24.698	0.100
152.100	-9.595	0.099
152.200	13.490	0.099
152.300	-21.808	0.100
152.400	7.093	0.099
152.500	2.737	0.099
152.600	-1.523	0.099
152.700	-26.320	0.099
152.800	-2.043	0.099
152.900	2.579	0.100
153.000	-32.283	0.099
153.100	0.773	0.099
153.200	15.227	0.100
153.300	-7.239	0.100
153.400	3.399	0.099
153.500	-9.208	0.100
153.600	-4.715	0.100
153.700	6.114	0.100
153.800	-10.849	0.099
153.900	-13.798	0.100
154.000	-18.629	0.099
154.100	-19.984	0.099
154.200	-3.143	0.099
154.300	-29.204	0.099
154.400	1.924	0.099
154.500	2.287	0.099
154.600	-7.749	0.099
154.700	-11.111	0.099
154.800	0.268	0.099
154.900	-11.811	0.100
155.000	-3.497	0.099
155.100	-7.366	0.100
155.200	-8.745	0.100
155.300	-13.766	0.100
155.400	-11.646	0.100
155.500	-23.238	0.100
155.600	8.366	0.100
155.700	-1.603	0.100
155.800	-16.937	0.099
155.900	-1.585	0.099
156.000	-3.727	0.099
156.100	10.598	0.100
156.200	-9.759	0.100
156.300	-1.258	0.099
156.400	-14.885	0.099
156.500	-11.288	0.100
156.600	-9.982	0.099
156.700	3.460	0.099
156.800	-4.869	0.099
156.900	-1.874	0.099
157.000	-12.281	0.099
157.100	8.434	0.099
157.200	-12.492	0.099
157.300	-10.008	0.100
157.400	-17.380	0.099
157.500	19.724	0.099
157.600	-12.147	0.099
157.700	-4.434	0.099
157.800	-7.462	0.100
157.900	-26.112	0.100
158.000	-26.364	0.099
158.100	13.441	0.099
158.200	-4.267	0.099
158.300	-8.603	0.099
158.400	-7.496	0.100
158.500	2.712	0.099
158.600	-21.193	0.099
158.700	-5.206	0.099
158.800	3.256	0.099
158.900	-3.250	0.099
159.000	14.795	0.100
159.100	-13.437	0.099
159.200	-17.119	0.100
159.300	-18.613	0.099
159.400	-8.570	0.099
159.500	-2.818	0.099
159.600	-22.105	0.100
159.700	-5.674	0.099
159.800	-7.459	0.099
159.900	8.212	0.099
160.000	-20.559	0.099
160.100	0.754	0.099
160.200	-8.203	0.099
160.300	-2.116	0.099
160.400	2.619	0.099
160.500	-0.304	0.099
160.600	-15.968	0.099
160.700	-14.076	0.099
160.800	-5.614	0.099
160.900	-8.327	0.099
161.000	-16.292	0.099
161.100	-8.062	0.099
161.200	-11.880	0.099
161.300	0.285	0.099
161.400	-0.115	0.099
161.500	-9.633	0.099
161.600	-14.475	0.099
161.700	5.881	0.099
161.800	3.632	0.099
161.900	-19.398	0.099
162.000	-4.907	0.100
162.100	-1.769	0.099
162.200	-12.028	0.099
162.300	-2.273	0.099
162.400	-42.482	0.099
162.500	-3.804	0.099
162.600	-4.631	0.099
162.700	-14.207	0.099
162.800	-14.922	0.099
162.900	-13.154	0.099
163.000	-2.500	0.100
163.100	-2.562	0.099
163.200	-15.111	0.099
163.300	-11.324	0.099
163.400	-14.312	0.099
163.500	-2.305	0.100
163.600	4.465	0.099
163.700	-7.182	0.100
163.800	-5.744	0.100
163.900	-1.911	0.099
164.000	-23.935	0.099
164.100	7.079	0.100
164.200	1.309	0.099
164.300	-7.642	0.099
164.400	-9.674	0.099
164.500	-8.034	0.100
164.600	-9.819	0.099
164.700	-11.655	0.100
164.800	-5.623	0.100
164.900	2.314	0.099
165.000	-3.628	0.100
165.100	-4.327	0.100
165.200	0.680	0.099
165.300	-23.549	0.099
165.400	-6.527	0.100
165.500	-2.627	0.099
165.600	-20.606	0.099
165.700	-10.881	0.099
165.800	-7.643	0.099
165.900	-8.697	0.100
166.000	-11.990	0.099
166.100	-10.734	0.099
166.200	-15.133	0.100
166.300	-15.917	0.100
166.400	-6.393	0.100
166.500	-18.303	0.099
166.600	-22.613	0.099
166.700	-10.708	0.100
166.800	0.654	0.099
166.900	-18.702	0.099
167.000	-18.102	0.099
167.100	-7.514	0.099
167.200	11.705	0.099
167.300	-13.271	0.099
167.400	-13.913	0.099
167.500	4.261	0.099
167.600	-6.623	0.099
167.700	-11.703	0.099
167.800	-22.493	0.099
167.900	-22.914	0.100
168.000	-20.104	0.099
168.100	4.495	0.099
168.200	-2.289	0.100
168.300	-13.457	0.099
168.400	2.029	0.099
168.500	-1.371	0.099
168.600	-9.396	0.099
168.700	-4.595	0.100
168.800	5.321	0.099
168.900	-5.557	0.099
169.000	-7.354	0.099
169.100	-20.447	0.099
169.200	0.468	0.099
169.300	-12.483	0.099
169.400	-1.259	0.099
169.500	-24.968	0.099
169.600	-7.162	0.099
169.700	0.292	0.099
169.800	-11.325	0.099
169.900	-15.193	0.099
170.000	-6.635	0.100
170.100	-12.915	0.099
170.200	-9.620	0.099
170.300	8.543	0.100
170.400	4.681	0.099
170.500	-12.334	0.099
170.600	-10.723	0.100
170.700	-8.641	0.099
170.800	-14.135	0.099
170.900	-17.001	0.099
171.000	-4.338	0.099
171.100	4.434	0.100
171.200	10.909	0.100
171.300	-3.581	0.099
171.400	5.582	0.099
171.500	-17.128	0.099
171.600	-17.787	0.099
171.700	-13.177	0.099
171.800	-5.104	0.099
171.900	-16.098	0.099
172.000	-5.926	0.099
172.100	-6.439	0.099
172.200	6.198	0.099
172.300	-7.152	0.100
172.400	-2.858	0.099
172.500	-10.485	0.099
172.600	-7.486	0.099
172.700	-9.238	0.099
172.800	-10.139	0.099
172.900	-6.681	0.099
173.000	-2.830	0.099
173.100	-8.713	0.099
173.200	-1.075	0.099
173.300	4.066	0.099
173.400	-10.764	0.099
173.500	3.162	0.099
173.600	-2.792	0.100
173.700	1.514	0.099
173.800	-19.110	0.099
173.900	-6.178	0.099
174.000	-23.152	0.100
174.100	-5.808	0.099
174.200	0.796	0.099
174.300	9.665	0.100
174.400	-21.936	0.100
174.500	-16.832	0.099
174.600	-10.054	0.099
174.700	-0.818	0.099
174.800	-2.175	0.099
174.900	-11.869	0.099
175.000	2.247	0.099
175.100	-11.305	0.099
175.200	-4.683	0.099
175.300	7.360	0.099
175.400	-9.656	0.099
175.500	1.146	0.100
175.600	20.100	0.099
175.700	-8.869	0.099
175.800	0.212	0.100
175.900	-9.551	0.099
176.000	-6.303	0.099
176.100	-17.416	0.099
176.200	-16.412	0.099
176.300	21.542	0.099
176.400	-10.421	0.099
176.500	-0.566	0.099
176.600	-12.107	0.099
176.700	-17.642	0.099
176.800	-14.886	0.099
176.900	8.168	0.099
177.000	-4.909	0.099
177.100	-8.595	0.099
177.200	-8.026	0.099
177.300	-5.049	0.099
177.400	-10.026	0.099
177.500	-21.888	0.099
177.600	-9.057	0.099
177.700	-7.188	0.099
177.800	-0.963	0.099
177.900	-10.648	0.099
178.000	-12.192	0.099
178.100	-11.012	0.099
178.200	-4.164	0.099
178.300	-19.920	0.099
178.400	-7.985	0.099
178.500	2.350	0.099
178.600	-0.363	0.099
178.700	-6.584	0.099
178.800	-23.123	0.099
178.900	-17.637	0.099
179.000	-7.437	0.099
179.100	-17.268	0.099
179.200	1.092	0.099
179.300	3.629	0.099
179.400	-16.208	0.099
179.500	-9.108	0.099
179.600	-2.249	0.099
179.700	-27.596	0.099
179.800	10.614	0.099
179.900	-7.924	0.099
180.000	-14.660	0.099
180.100	-23.710	0.100
180.200	-6.707	0.099
180.300	17.173	0.099
180.400	3.891	0.099
180.500	-10.392	0.099
180.600	-5.592	0.099
180.700	15.931	0.099
180.800	10.071	0.099
180.900	-21.612	0.099
181.000	23.028	0.099
181.100	14.060	0.099
181.200	7.715	0.099
181.300	13.528	0.099
181.400	32.670	0.099
181.500	20.215	0.099
181.600	22.711	0.099
181.700	34.735	0.100
181.800	46.336	0.099
181.900	27.381	0.099
182.000	35.021	0.099
182.100	35.952	0.099
182.200	18.952	0.100
182.300	14.509	0.099
182.400	22.688	0.099
182.500	62.561	0.099
182.600	13.389	0.100
182.700	34.978	0.099
182.800	49.996	0.099
182.900	47.540	0.099
183.000	22.038	0.099
183.100	25.163	0.099
183.200	26.840	0.099
183.300	24.219	0.099
183.400	25.630	0.099
183.500	31.383	0.099
183.600	50.933	0.099
183.700	8.152	0.099
183.800	22.275	0.099
183.900	39.460	0.099
184.000	33.202	0.100
184.100	23.155	0.099
184.200	21.068	0.099
184.300	3.629	0.099
184.400	7.335	0.099
184.500	34.726	0.099
184.600	10.740	0.099
184.700	12.890	0.099
184.800	25.210	0.099
184.900	18.861	0.099
185.000	9.226	0.100
185.100	18.328	0.100
185.200	16.965	0.099
185.300	15.311	0.099
185.400	26.568	0.099
185.500	16.780	0.099
185.600	21.259	0.100
185.700	22.070	0.099
185.800	23.837	0.099
185.900	21.728	0.099
186.000	14.038	0.099
186.100	17.473	0.099
186.200	9.171	0.100
186.300	20.305	0.099
186.400	32.855	0.100
186.500	23.001	0.099
186.600	9.814	0.099
186.700	16.340	0.100
186.800	34.488	0.099
186.900	24.309	0.099
187.000	25.096	0.099
187.100	36.098	0.099
187.200	30.064	0.099
187.300	2.249	0.099
187.400	27.032	0.099
187.500	30.721	0.099
187.600	38.653	0.100
187.700	29.120	0.100
187.800	16.586	0.099
187.900	20.392	0.100
188.000	30.816	0.099
188.100	36.247	0.100
188.200	35.413	0.099
188.300	27.804	0.099
188.400	32.729	0.099
188.500	30.164	0.099
188.600	34.946	0.099
188.700	34.723	0.100
188.800	26.375	0.099
188.900	30.186	0.100
189.000	50.541	0.099
189.100	37.104	0.099
189.200	29.458	0.099
189.300	39.308	0.100
189.400	33.733	0.099
189.500	44.524	0.099
189.600	34.832	0.099
189.700	25.351	0.099
189.800	46.916	0.099
189.900	21.307	0.099
190.000	41.642	0.099
190.100	29.275	0.099
190.200	38.654	0.100
190.300	38.553	0.100
190.400	32.659	0.099
190.500	48.322	0.100
190.600	30.457	0.099
190.700	14.309	0.099
190.800	52.281	0.099
190.900	41.747	0.100
191.000	31.308	0.099
191.100	29.990	0.099
191.200	41.840	0.100
191.300	35.754	0.100
191.400	26.183	0.099
191.500	25.451	0.099
191.600	30.746	0.099
191.700	48.226	0.100
191.800	32.524	0.099
191.900	38.454	0.100
192.000	29.086	0.099
192.100	54.456	0.099
192.200	22.520	0.099
192.300	30.714	0.099
192.400	50.008	0.100
192.500	48.850	0.099
192.600	26.532	0.100
192.700	32.239	0.099
192.800	43.822	0.100
192.900	42.978	0.100
193.000	37.508	0.099
193.100	39.721	0.100
193.200	33.899	0.099
193.300	35.006	0.099
193.400	37.242	0.099
193.500	40.509	0.099
193.600	25.267	0.100
193.700	47.417	0.099
193.800	39.111	0.100
193.900	35.814	0.100
194.000	33.587	0.099
194.100	31.295	0.099
194.200	39.818	0.100
194.300	19.804	0.100
194.400	40.941	0.099
194.500	41.733	0.100
194.600	44.316	0.100
194.700	27.055	0.099
194.800	42.832	0.100
194.900	31.395	0.099
195.000	28.698	0.099
195.100	38.897	0.100
195.200	54.684	0.100
195.300	39.659	0.100
195.400	22.345	0.100
195.500	30.778	0.099
195.600	34.065	0.100
195.700	23.524	0.099
195.800	42.340	0.099
195.900	27.012	0.099
196.000	35.399	0.100
196.100	31.726	0.100
196.200	35.444	0.100
196.300	39.802	0.100
196.400	27.303	0.100
196.500	44.434	0.100
196.600	33.420	0.100
196.700	29.232	0.100
196.800	20.239	0.099
196.900	45.694	0.100
197.000	36.061	0.100
197.100	34.784	0.100
197.200	40.325	0.100
197.300	27.668	0.100
197.400	20.821	0.100
197.500	24.779	0.099
197.600	34.026	0.100
197.700	23.426	0.100
197.800	24.999	0.100
197.900	30.474	0.100
198.000	18.034	0.099
198.100	25.317	0.100
198.200	33.593	0.100
198.300	37.524	0.099
198.400	22.605	0.099
198.500	21.131	0.099
198.600	54.888	0.099
198.700	33.931	0.099
198.800	23.008	0.099
198.900	37.153	0.100
199.000	33.783	0.100
199.100	22.676	0.100
199.200	39.513	0.099
199.300	30.156	0.100
199.400	30.466	0.100
199.500	49.892	0.100
199.600	25.266	0.099
199.700	13.640	0.099
199.800	45.130	0.099
199.900	33.845	0.099
200.000	8.626	0.100
200.100	42.710	0.100
200.200	37.637	0.100
200.300	32.414	0.099
200.400	27.194	0.099
200.500	31.646	0.099
200.600	36.763	0.099
200.700	27.492	0.099
200.800	37.124	0.100
200.900	21.819	0.099
201.000	33.241	0.099
201.100	36.723	0.099
201.200	15.026	0.099
201.300	14.288	0.099
201.400	24.297	0.099
201.500	62.294	0.099
201.600	44.646	0.100
201.700	28.037	0.100
201.800	37.053	0.100
201.900	34.544	0.100
202.000	5.425	0.100
202.100	59.403	0.100
202.200	29.925	0.100
202.300	23.744	0.100
202.400	25.762	0.100
202.500	14.572	0.100
202.600	33.869	0.099
202.700	21.058	0.099
202.800	24.409	0.100
202.900	30.706	0.099
203.000	23.864	0.099
203.100	11.652	0.099
203.200	24.101	0.100
203.300	43.615	0.099
203.400	41.388	0.100
203.500	33.694	0.099
203.600	32.347	0.099
203.700	50.548	0.099
203.800	21.228	0.100
203.900	21.044	0.100
204.000	37.530	0.099
204.100	17.500	0.099
204.200	41.033	0.099
204.300	27.667	0.100
204.400	49.294	0.099
204.500	24.412	0.099
204.600	14.017	0.100
204.700	19.075	0.100
204.800	35.438	0.100
204.900	35.107	0.100
205.000	20.901	0.099
205.100	16.294	0.100
205.200	46.202	0.100
205.300	30.866	0.099
205.400	23.247	0.100
205.500	32.569	0.100
205.600	22.565	0.100
205.700	38.981	0.100
205.800	36.326	0.100
205.900	35.279	0.100
206.000	19.704	0.100
206.100	18.703	0.099
206.200	41.118	0.100
206.300	35.712	0.100
206.400	37.784	0.100
206.500	33.519	0.100
206.600	30.072	0.100
206.700	16.455	0.100
206.800	29.242	0.100
206.900	29.587	0.100
207.000	27.934	0.099
207.100	36.235	0.099
207.200	28.028	0.099
207.300	13.071	0.100
207.400	37.363	0.099
207.500	30.747	0.099
207.600	33.780	0.100
207.700	21.234	0.099
207.800	29.430	0.099
207.900	26.808	0.100
208.000	11.519	0.099
208.100	11.028	0.099
208.200	31.755	0.099
208.300	48.937	0.099
208.400	37.008	0.100
208.500	-0.691	0.100
208.600	40.182	0.100
208.700	24.730	0.099
208.800	35.140	0.100
208.900	33.516	0.099
209.000	28.136	0.099
209.100	29.892	0.100
209.200	28.097	0.100
209.300	21.843	0.100
209.400	46.457	0.100
209.500	24.476	0.099
209.600	26.444	0.100
209.700	8.477	0.099
209.800	28.938	0.099
209.900	26.316	0.099
210.000	40.087	0.100
210.100	23.503	0.100
210.200	43.889	0.100
210.300	27.112	0.100
210.400	35.551	0.100
210.500	35.956	0.100
210.600	17.076	0.100
210.700	25.809	0.100
210.800	18.007	0.100
210.900	19.195	0.100
211.000	21.106	0.100
211.100	25.579	0.099
211.200	29.161	0.100
211.300	25.247	0.100
211.400	29.113	0.100
211.500	42.214	0.100
211.600	21.254	0.099
211.700	13.777	0.099
211.800	28.062	0.100
211.900	39.169	0.100
212.000	47.230	0.099
212.100	19.452	0.100
212.200	39.122	0.100
212.300	21.533	0.100
212.400	33.809	0.099
212.500	22.849	0.099
212.600	51.798	0.100
212.700	34.775	0.100
212.800	35.417	0.100
212.900	29.927	0.100
213.000	37.213	0.100
213.100	31.736	0.100
213.200	25.570	0.099
213.300	39.537	0.100
213.400	19.789	0.100
213.500	24.082	0.100
213.600	33.882	0.100
213.700	31.447	0.100
213.800	34.333	0.100
213.900	31.778	0.099
214.000	15.187	0.099
214.100	36.928	0.100
214.200	19.415	0.100
214.300	16.783	0.100
214.400	34.009	0.100
214.500	35.443	0.100
214.600	30.747	0.100
214.700	22.211	0.100
214.800	33.321	0.100
214.900	29.679	0.099
215.000	24.036	0.100
215.100	31.652	0.100
215.200	28.552	0.100
215.300	15.744	0.100
215.400	28.324	0.099
215.500	13.241	0.100
215.600	33.938	0.100
215.700	25.502	0.099
215.800	31.964	0.099
215.900	4.680	0.099
216.000	19.837	0.099
216.100	43.204	0.099
216.200	28.336	0.100
216.300	15.047	0.100
216.400	7.302	0.100
216.500	33.734	0.099
216.600	22.378	0.100
216.700	29.854	0.100
216.800	26.295	0.099
216.900	30.696	0.100
217.000	16.648	0.100
217.100	36.883	0.100
217.200	28.085	0.099
217.300	47.134	0.100
217.400	35.612	0.099
217.500	34.127	0.100
217.600	8.175	0.099
217.700	32.964	0.100
217.800	20.619	0.099
217.900	38.492	0.100
218.000	20.312	0.099
218.100	41.847	0.099
218.200	28.556	0.099
218.300	23.298	0.100
218.400	43.402	0.100
218.500	22.552	0.100
218.600	18.451	0.099
218.700	36.174	0.099
218.800	21.185	0.099
218.900	31.747	0.100
219.000	30.630	0.100
219.100	11.901	0.100
219.200	30.089	0.099
219.300	33.812	0.099
219.400	34.695	0.100
219.500	44.111	0.100
219.600	16.093	0.099
219.700	19.726	0.099
219.800	24.692	0.100
219.900	27.868	0.099
220.000	34.472	0.100
220.100	30.652	0.100
220.200	29.998	0.100
220.300	8.250	0.099
220.400	55.407	0.099
220.500	24.595	0.099
220.600	22.759	0.099
220.700	45.380	0.099
220.800	33.539	0.099
220.900	42.843	0.100
221.000	20.738	0.100
221.100	14.351	0.099
221.200	15.076	0.099
221.300	30.419	0.100
221.400	30.368	0.099
221.500	37.494	0.100
221.600	31.319	0.100
221.700	27.463	0.099
221.800	43.352	0.099
221.900	32.606	0.099
222.000	25.996	0.100
222.100	35.603	0.099
222.200	20.447	0.099
222.300	22.857	0.100
222.400	28.128	0.099
222.500	36.743	0.100
222.600	27.491	0.099
222.700	30.102	0.099
222.800	33.520	0.099
222.900	28.394	0.099
223.000	20.262	0.100
223.100	31.698	0.099
223.200	34.659	0.099
223.300	38.357	0.099
223.400	29.055	0.099
223.500	23.823	0.099
223.600	29.847	0.100
223.700	38.679	0.099
223.800	26.284	0.099
223.900	32.864	0.099
224.000	33.542	0.100
224.100	9.224	0.100
224.200	12.935	0.099
224.300	38.843	0.099
224.400	33.221	0.100
224.500	29.193	0.100
224.600	36.523	0.099
224.700	26.472	0.099
224.800	2.717	0.099
224.900	22.320	0.099
225.000	36.501	0.100
225.100	22.001	0.099
225.200	40.647	0.099
225.300	23.272	0.100
225.400	13.234	0.100
225.500	27.652	0.099
225.600	27.763	0.099
225.700	20.334	0.100
225.800	34.559	0.100
225.900	23.546	0.099
226.000	41.550	0.099
226.100	31.513	0.099
226.200	32.729	0.099
226.300	23.122	0.099
226.400	22.402	0.099
226.500	10.466	0.100
226.600	41.331	0.099
226.700	30.609	0.099
226.800	32.110	0.099
226.900	7.773	0.099
227.000	30.963	0.099
227.100	34.920	0.099
227.200	34.917	0.099
227.300	17.385	0.099
227.400	22.595	0.099
227.500	33.216	0.099
227.600	39.333	0.099
227.700	24.699	0.099
227.800	49.458	0.100
227.900	24.176	0.099
228.000	16.419	0.099
228.100	10.373	0.099
228.200	46.706	0.100
228.300	23.793	0.099
228.400	32.442	0.099
228.500	30.955	0.099
228.600	12.557	0.099
228.700	35.436	0.099
228.800	22.549	0.099
228.900	42.296	0.100
229.000	38.493	0.100
229.100	21.482	0.100
229.200	18.527	0.099
229.300	27.334	0.099
229.400	32.464	0.099
229.500	22.025	0.099
229.600	11.315	0.099
229.700	36.072	0.099
229.800	21.595	0.099
229.900	30.540	0.100
230.000	31.512	0.099
230.100	28.878	0.099
230.200	42.152	0.100
230.300	39.814	0.100
230.400	15.722	0.099
230.500	31.065	0.100
230.600	30.722	0.100
230.700	24.356	0.099
230.800	37.225	0.099
230.900	28.102	0.100
231.000	11.155	0.100
231.100	31.760	0.099
231.200	29.353	0.099
231.300	41.414	0.100
231.400	13.256	0.100
231.500	27.614	0.099
231.600	21.137	0.099
231.700	22.426	0.099
231.800	30.721	0.099
231.900	26.013	0.099
232.000	36.457	0.099
232.100	36.200	0.100
232.200	35.785	0.099
232.300	32.308	0.099
232.400	21.149	0.099
232.500	30.998	0.099
232.600	1.669	0.099
232.700	30.592	0.100
232.800	47.984	0.099
232.900	25.744	0.099
233.000	30.385	0.099
233.100	21.729	0.099
233.200	-8.876	0.099
233.300	50.784	0.100
233.400	8.188	0.099
233.500	39.045	0.099
233.600	28.840	0.099
233.700	33.855	0.100
233.800	25.910	0.099
233.900	44.810	0.099
234.000	25.083	0.099
234.100	30.771	0.099
234.200	33.858	0.099
234.300	28.376	0.099
234.400	48.523	0.100
234.500	13.002	0.100
234.600	23.815	0.100
234.700	23.851	0.099
234.800	17.791	0.100
234.900	33.881	0.100
235.000	23.867	0.100
235.100	25.370	0.099
235.200	25.627	0.099
235.300	25.367	0.099
235.400	25.588	0.099
235.500	29.493	0.099
235.600	8.252	0.099
235.700	33.213	0.099
235.800	29.936	0.100
235.900	28.422	0.099
236.000	25.584	0.099
236.100	44.191	0.099
236.200	30.244	0.099
236.300	26.923	0.100
236.400	16.626	0.099
236.500	49.348	0.099
236.600	21.237	0.100
236.700	9.893	0.099
236.800	23.205	0.099
236.900	30.832	0.099
237.000	27.860	0.099
237.100	12.374	0.099
237.200	23.625	0.099
237.300	25.808	0.099
237.400	45.360	0.100
237.500	23.807	0.099
237.600	23.117	0.099
237.700	19.485	0.099
237.800	42.465	0.100
237.900	24.768	0.099
238.000	9.235	0.099
238.100	37.573	0.100
238.200	35.701	0.099
238.300	6.982	0.099
238.400	15.230	0.099
238.500	31.604	0.099
238.600	12.707	0.099
238.700	24.446	0.099
238.800	33.076	0.099
238.900	38.462	0.099
239.000	40.091	0.099
239.100	38.473	0.099
239.200	22.079	0.099
239.300	11.535	0.099
239.400	39.878	0.099
239.500	11.008	0.100
239.600	30.680	0.100
239.700	25.127	0.099
239.800	42.819	0.099
239.900	28.953	0.099
240.000	22.749	0.099
240.100	17.919	0.099
240.200	20.688	0.099
240.300	29.119	0.100
240.400	2.520	0.099
240.500	27.195	0.099
240.600	20.509	0.099
240.700	27.932	0.099
240.800	13.039	0.099
240.900	12.902	0.099
241.000	-6.710	0.099
241.100	1.271	0.099
241.200	-8.908	0.099
241.300	-6.847	0.099
241.400	13.072	0.100
241.500	5.075	0.099
241.600	-16.533	0.100
241.700	-20.943	0.099
241.800	1.133	0.099
241.900	-8.380	0.100
242.000	-11.510	0.099
242.100	-2.686	0.099
242.200	-20.019	0.099
242.300	-2.173	0.099
242.400	-23.191	0.099
242.500	-9.782	0.099
242.600	-19.795	0.099
242.700	-24.929	0.099
242.800	-17.930	0.099
242.900	-4.002	0.099
243.000	-2.246	0.099
243.100	-18.371	0.099
243.200	-22.512	0.099
243.300	-16.144	0.099
243.400	-13.958	0.099
243.500	-19.302	0.099
243.600	-19.783	0.099
243.700	-0.710	0.099
243.800	-20.827	0.099
243.900	-30.690	0.099
244.000	-3.788	0.099
244.100	-4.911	0.099
244.200	-21.208	0.100
244.300	-21.579	0.099
244.400	-15.758	0.099
244.500	-13.320	0.099
244.600	-12.167	0.099
244.700	-16.376	0.099
244.800	-22.348	0.099
244.900	-23.330	0.099
245.000	-4.876	0.099
245.100	-15.887	0.100
245.200	-31.375	0.099
245.300	-17.316	0.100
245.400	-14.521	0.100
245.500	-21.474	0.099
245.600	-4.563	0.099
245.700	-31.863	0.099
245.800	-1.160	0.099
245.900	-13.252	0.099
246.000	-12.324	0.099
246.100	-20.882	0.099
246.200	-36.137	0.099
246.300	-16.807	0.099
246.400	3.090	0.099
246.500	-22.571	0.099
246.600	-29.164	0.100
246.700	-6.297	0.099
246.800	1.512	0.099
246.900	-10.761	0.099
247.000	-5.900	0.099
247.100	-25.534	0.100
247.200	-20.137	0.099
247.300	-19.881	0.099
247.400	-2.094	0.099
247.500	-21.023	0.099
247.600	-2.412	0.099
247.700	-23.039	0.100
247.800	-15.787	0.099
247.900	-19.071	0.099
248.000	-14.674	0.099
248.100	6.934	0.099
248.200	-11.047	0.099
248.300	-25.072	0.099
248.400	-17.575	0.100
248.500	-14.443	0.099
248.600	-30.019	0.099
248.700	-26.217	0.099
248.800	-7.162	0.099
248.900	-31.262	0.099
249.000	-9.082	0.099
249.100	-6.760	0.099
249.200	1.207	0.099
249.300	1.985	0.099
249.400	-30.297	0.099
249.500	-2.317	0.099
249.600	-23.874	0.099
249.700	-3.673	0.099
249.800	-34.471	0.100
249.900	-17.688	0.099
250.000	1.808	0.099
250.100	-11.088	0.099
250.200	-6.672	0.099
250.300	-31.774	0.099
250.400	-27.591	0.099
250.500	-17.217	0.099
250.600	-9.654	0.100
250.700	-12.877	0.099
250.800	-17.625	0.099
250.900	-18.614	0.099
251.000	-21.024	0.099
251.100	-28.217	0.099
251.200	-14.946	0.100
251.300	-28.417	0.099
251.400	-3.249	0.099
251.500	-14.772	0.099
251.600	-19.236	0.099
251.700	-24.097	0.099
251.800	-37.182	0.099
251.900	7.999	0.099
252.000	-6.239	0.099
252.100	-22.872	0.100
252.200	2.299	0.099
252.300	-12.643	0.099
252.400	-8.128	0.100
252.500	-15.436	0.100
252.600	-21.123	0.100
252.700	-6.786	0.100
252.800	-16.681	0.100
252.900	-5.196	0.099
253.000	-16.770	0.099
253.100	-22.288	0.100
253.200	-6.129	0.099
253.300	-35.238	0.099
253.400	-8.949	0.099
253.500	-25.998	0.099
253.600	-18.059	0.100
253.700	-16.933	0.099
253.800	-17.148	0.100
253.900	-21.189	0.099
254.000	-14.719	0.099
254.100	-28.394	0.099
254.200	-8.648	0.099
254.300	-18.824	0.099
254.400	-20.251	0.100
254.500	-13.874	0.100
254.600	-7.264	0.099
254.700	-12.465	0.099
254.800	-16.607	0.099
254.900	-16.474	0.099
255.000	-22.056	0.099
255.100	-43.612	0.099
255.200	-21.174	0.099
255.300	-33.600	0.099
255.400	-7.652	0.099
255.500	-47.418	0.099
255.600	-13.886	0.099
255.700	-3.070	0.099
255.800	-7.186	0.099
255.900	-18.128	0.099
256.000	-26.564	0.099
256.100	-17.183	0.099
256.200	-18.914	0.099
256.300	-21.031	0.099
256.400	-2.866	0.099
256.500	-15.133	0.100
256.600	-21.646	0.099
256.700	-28.050	0.099
256.800	17.409	0.099
256.900	-35.276	0.100
257.000	-25.095	0.099
257.100	-15.428	0.099
257.200	-13.752	0.099
257.300	3.870	0.099
257.400	-22.726	0.099
257.500	-13.956	0.099
257.600	-22.631	0.099
257.700	-17.123	0.099
257.800	-22.617	0.099
257.900	-9.039	0.099
258.000	-18.558	0.100
258.100	-2.850	0.099
258.200	-26.635	0.099
258.300	-6.556	0.099
258.400	-16.851	0.099
258.500	-22.319	0.099
258.600	-10.769	0.099
258.700	-33.030	0.099
258.800	-21.244	0.099
258.900	-13.502	0.099
259.000	-23.687	0.099
259.100	-7.680	0.099
259.200	-0.873	0.099
259.300	-27.337	0.099
259.400	1.951	0.099
259.500	-22.113	0.099
259.600	-3.013	0.099
259.700	-20.227	0.099
259.800	5.929	0.100
259.900	-20.379	0.099
260.000	-22.845	0.099
260.100	-27.176	0.099
260.200	-17.624	0.099
260.300	-12.766	0.099
260.400	-27.761	0.099
260.500	-9.024	0.099
260.600	-19.726	0.099
260.700	-10.758	0.099
260.800	-18.650	0.100
260.900	-12.976	0.099
261.000	-16.783	0.099
261.100	-25.022	0.099
261.200	-6.137	0.099
261.300	-21.875	0.099
261.400	-28.463	0.099
261.500	-5.504	0.099
261.600	-18.181	0.099
261.700	-29.323	0.099
261.800	-5.329	0.099
261.900	-23.728	0.099
262.000	-34.956	0.099
262.100	-13.942	0.099
262.200	-8.708	0.099
262.300	-22.006	0.099
262.400	-10.188	0.099
262.500	-18.666	0.099
262.600	-9.360	0.099
262.700	-18.875	0.099
262.800	-19.769	0.099
262.900	-26.044	0.099
263.000	-6.949	0.099
263.100	-21.015	0.099
263.200	-19.396	0.099
263.300	-1.310	0.099
263.400	-8.494	0.099
263.500	-31.356	0.099
263.600	-20.344	0.099
263.700	-15.263	0.099
263.800	-12.188	0.099
263.900	-21.228	0.099
264.000	-18.945	0.099
264.100	-44.991	0.099
264.200	-19.207	0.099
264.300	5.767	0.099
264.400	-22.653	0.099
264.500	-20.934	0.099
264.600	-18.226	0.099
264.700	-16.010	0.099
264.800	-23.261	0.099
264.900	-15.496	0.099
265.000	-23.199	0.099
265.100	-17.505	0.099
265.200	-11.833	0.099
265.300	-22.928	0.099
265.400	-31.544	0.099
265.500	-24.127	0.099
265.600	-21.948	0.099
265.700	-11.210	0.099
265.800	-11.559	0.099
265.900	-9.457	0.099
266.000	-13.321	0.099
266.100	-21.374	0.099
266.200	-17.856	0.099
266.300	-17.406	0.099
266.400	-6.875	0.099
266.500	-19.840	0.099
266.600	-30.313	0.099
266.700	-13.274	0.099
266.800	-14.666	0.099
266.900	-0.100	0.099
267.000	-33.282	0.099
267.100	-14.480	0.099
267.200	-18.186	0.099
267.300	-17.348	0.099
267.400	-22.102	0.099
267.500	-8.563	0.099
267.600	-13.908	0.099
267.700	-21.445	0.099
267.800	-31.122	0.099
267.900	-28.014	0.099
268.000	-14.485	0.099
268.100	-22.180	0.099
268.200	-30.697	0.099
268.300	0.449	0.099
268.400	2.174	0.099
268.500	-33.526	0.099
268.600	-17.800	0.099
268.700	-28.688	0.099
268.800	-16.014	0.099
268.900	-15.361	0.100
269.000	-13.384	0.099
269.100	-14.419	0.099
269.200	-17.183	0.100
269.300	-22.341	0.099
269.400	-9.840	0.099
269.500	-11.346	0.099
269.600	-24.816	0.099
269.700	-24.931	0.099
269.800	-13.833	0.099
269.900	-10.749	0.099
270.000	-19.399	0.099
270.100	-37.628	0.099
270.200	-29.043	0.099
270.300	-30.537	0.099
270.400	-0.925	0.100
270.500	-29.166	0.099
270.600	-15.847	0.099
270.700	-21.319	0.099
270.800	-24.123	0.099
270.900	-29.479	0.099
271.000	-11.393	0.099
271.100	-8.074	0.099
271.200	-19.561	0.099
271.300	-25.965	0.099
271.400	-13.636	0.099
271.500	-19.874	0.099
271.600	-24.737	0.099
271.700	-21.231	0.099
271.800	-6.615	0.099
271.900	-6.577	0.099
272.000	-27.048	0.099
272.100	-17.635	0.099
272.200	-6.107	0.099
272.300	-25.805	0.099
272.400	-20.911	0.099
272.500	-16.301	0.099
272.600	-21.380	0.099
272.700	-22.085	0.099
272.800	-18.077	0.099
272.900	-9.272	0.099
273.000	-20.951	0.099
273.100	-15.492	0.099
273.200	-8.448	0.099
273.300	-6.664	0.099
273.400	-31.714	0.099
273.500	-22.100	0.099
273.600	-19.369	0.099
273.700	-25.895	0.099
273.800	-40.408	0.099
273.900	-6.865	0.099
274.000	-21.616	0.099
274.100	-18.950	0.100
274.200	-14.181	0.099
274.300	-26.909	0.099
274.400	-18.911	0.099
274.500	-27.836	0.099
274.600	3.564	0.099
274.700	-14.539	0.099
274.800	-16.733	0.099
274.900	-24.322	0.099
275.000	-19.137	0.099
275.100	-14.959	0.099
275.200	-16.745	0.099
275.300	-30.454	0.099
275.400	-9.881	0.099
275.500	-27.786	0.099
275.600	-13.085	0.099
275.700	-4.052	0.099
275.800	-8.228	0.099
275.900	-35.402	0.099
276.000	-27.200	0.099
276.100	-5.871	0.099
276.200	-14.878	0.099
276.300	-11.343	0.099
276.400	-12.209	0.099
276.500	-17.090	0.099
276.600	-15.133	0.099
276.700	-5.785	0.099
276.800	-25.534	0.099
276.900	-19.487	0.099
277.000	-24.529	0.099
277.100	-17.805	0.099
277.200	-2.500	0.099
277.300	-19.634	0.099
277.400	-15.439	0.099
277.500	-24.630	0.099
277.600	-17.129	0.099
277.700	-21.368	0.099
277.800	-19.366	0.099
277.900	-17.628	0.099
278.000	-23.998	0.099
278.100	-17.957	0.099
278.200	-11.225	0.099
278.300	-20.699	0.099
278.400	-17.215	0.099
278.500	-21.697	0.099
278.600	-2.089	0.099
278.700	-30.042	0.099
278.800	-19.374	0.099
278.900	-18.835	0.099
279.000	-17.155	0.099
279.100	-17.378	0.099
279.200	-16.770	0.099
279.300	-16.521	0.099
279.400	-23.314	0.099
279.500	-21.706	0.099
279.600	-19.426	0.099
279.700	-6.386	0.099
279.800	-19.980	0.099
279.900	-19.153	0.099
280.000	-13.281	0.099
280.100	-17.475	0.099
280.200	-34.538	0.099
280.300	-6.416	0.099
280.400	-6.484	0.099
280.500	-24.461	0.099
280.600	-5.198	0.099
280.700	-24.110	0.099
280.800	-22.868	0.099
280.900	-24.798	0.099
281.000	-16.065	0.099
281.100	-25.881	0.099
281.200	-25.288	0.099
281.300	-21.940	0.099
281.400	-3.581	0.099
281.500	-13.534	0.099
281.600	-23.004	0.099
281.700	-10.959	0.099
281.800	-17.757	0.099
281.900	-8.699	0.099
282.000	-16.556	0.099
282.100	-23.001	0.099
282.200	-2.185	0.100
282.300	-18.665	0.099
282.400	-15.022	0.099
282.500	-3.510	0.099
282.600	-10.623	0.099
282.700	4.029	0.099
282.800	-30.473	0.099
282.900	-20.567	0.099
283.000	-16.361	0.099
283.100	-9.686	0.099
283.200	-27.087	0.099
283.300	-7.167	0.099
283.400	-22.121	0.099
283.500	-26.899	0.099
283.600	-38.104	0.099
283.700	4.434	0.099
283.800	-12.127	0.099
283.900	-22.505	0.099
284.000	-16.666	0.099
284.100	-9.759	0.099
284.200	-24.165	0.099
284.300	-7.158	0.099
284.400	-30.114	0.099
284.500	-9.442	0.099
284.600	-11.894	0.099
284.700	-15.497	0.099
284.800	14.102	0.099
284.900	-19.610	0.099
285.000	-15.738	0.099
285.100	-8.868	0.099
285.200	-33.049	0.099
285.300	-22.316	0.099
285.400	-22.249	0.099
285.500	-9.365	0.099
285.600	-17.946	0.099
285.700	6.698	0.099
285.800	-2.553	0.099
285.900	-1.346	0.099
286.000	2.778	0.099
286.100	-23.422	0.099
286.200	-30.056	0.099
286.300	-16.090	0.099
286.400	-19.501	0.099
286.500	-19.845	0.099
286.600	-18.217	0.099
286.700	-0.455	0.099
286.800	-16.926	0.099
286.900	-10.775	0.099
287.000	-13.637	0.099
287.100	-18.486	0.099
287.200	-18.296	0.099
287.300	-23.102	0.099
287.400	-1.877	0.099
287.500	-8.583	0.099
287.600	-15.138	0.099
287.700	-12.718	0.099
287.800	-17.473	0.099
287.900	-20.984	0.099
288.000	-8.730	0.099
288.100	-0.181	0.099
288.200	-13.357	0.099
288.300	-38.734	0.099
288.400	-14.294	0.099
288.500	-14.277	0.099
288.600	-13.074	0.099
288.700	0.338	0.099
288.800	-7.894	0.099
288.900	-11.988	0.099
289.000	-20.252	0.099
289.100	-11.168	0.099
289.200	-11.298	0.099
289.300	-11.417	0.099
289.400	-19.092	0.099
289.500	-6.307	0.099
289.600	-16.943	0.099
289.700	-10.636	0.099
289.800	-8.549	0.099
289.900	-2.994	0.099
290.000	-21.105	0.099
290.100	-28.725	0.099
290.200	-7.871	0.099
290.300	-25.179	0.099
290.400	-26.160	0.099
290.500	-6.913	0.099
290.600	-15.616	0.099
290.700	-27.210	0.099
290.800	-13.000	0.099
290.900	5.189	0.099
291.000	-29.426	0.099
291.100	-9.803	0.099
291.200	-1.196	0.099
291.300	-3.857	0.099
291.400	-34.791	0.099
291.500	-0.277	0.099
291.600	-20.862	0.099
291.700	-12.946	0.099
291.800	-23.257	0.099
291.900	-8.429	0.099
292.000	-34.764	0.099
292.100	-8.129	0.099
292.200	-19.092	0.099
292.300	-19.485	0.099
292.400	-14.102	0.099
292.500	-18.906	0.099
292.600	-25.699	0.099
292.700	-16.822	0.099
292.800	-7.943	0.099
292.900	-6.131	0.099
293.000	-11.051	0.099
293.100	-19.835	0.099
293.200	-7.525	0.099
293.300	-13.452	0.099
293.400	-12.155	0.099
293.500	-14.818	0.099
293.600	-16.109	0.099
293.700	-9.081	0.099
293.800	-5.627	0.099
293.900	-12.993	0.099
294.000	-8.540	0.099
294.100	-14.788	0.099
294.200	-19.500	0.099
294.300	12.325	0.100
294.400	-11.324	0.099
294.500	-14.445	0.099
294.600	-9.966	0.099
294.700	-21.659	0.099
294.800	-17.157	0.099
294.900	-20.733	0.099
295.000	1.179	0.099
295.100	-21.822	0.099
295.200	-10.728	0.099
295.300	-9.131	0.099
295.400	-30.248	0.099
295.500	-20.458	0.099
295.600	-5.444	0.099
295.700	-20.593	0.099
295.800	-9.884	0.099
295.900	-11.054	0.099
296.000	-9.236	0.099
296.100	-25.871	0.099
296.200	-23.539	0.099
296.300	-7.385	0.099
296.400	-26.825	0.099
296.500	-33.642	0.099
296.600	-17.614	0.099
296.700	-8.261	0.099
296.800	-0.325	0.099
296.900	-18.278	0.099
297.000	-26.116	0.099
297.100	-1.783	0.099
297.200	-13.180	0.099
297.300	-26.551	0.099
297.400	-11.884	0.099
297.500	-24.678	0.099
297.600	-27.078	0.099
297.700	-12.544	0.099
297.800	-12.034	0.099
297.900	-19.326	0.099
298.000	-17.223	0.099
298.100	-15.236	0.099
298.200	-7.396	0.099
298.300	-8.759	0.099
298.400	-31.504	0.099
298.500	-17.587	0.099
298.600	-13.632	0.099
298.700	3.718	0.099
298.800	-16.856	0.099
298.900	-2.926	0.099
299.000	2.677	0.099
299.100	-11.902	0.099
299.200	-20.441	0.099
299.300	-20.691	0.099
299.400	1.009	0.099
299.500	-26.559	0.099
299.600	-4.782	0.100
299.700	-16.027	0.099
299.800	1.512	0.099
299.900	-24.327	0.099
300.000	-5.893	0.099
300.100	-14.534	0.099
300.200	-22.809	0.099
300.300	-1.538	0.099
300.400	-12.523	0.099
300.500	-3.601	0.099
300.600	-23.257	0.099
300.700	-10.868	0.099
300.800	-6.972	0.099
300.900	3.431	0.099
301.000	-15.907	0.099
301.100	-24.549	0.099
301.200	9.372	0.099
301.300	-36.532	0.099
301.400	-6.946	0.099
301.500	-16.456	0.099
301.600	-20.348	0.099
301.700	-18.755	0.099
301.800	-25.215	0.099
301.900	-20.756	0.099
302.000	-2.931	0.099
302.100	-9.636	0.099
302.200	-18.408	0.099
302.300	-22.783	0.099
302.400	-30.427	0.099
302.500	-12.082	0.099
302.600	15.628	0.099
302.700	-8.893	0.099
302.800	-7.447	0.099
302.900	-3.056	0.099
303.000	5.910	0.100
303.100	-4.714	0.099
303.200	-14.811	0.099
303.300	6.093	0.100
303.400	-2.424	0.099
303.500	-25.953	0.099
303.600	-3.795	0.099
303.700	-12.596	0.099
303.800	-27.412	0.099
303.900	3.735	0.099
304.000	-21.911	0.099
304.100	-14.253	0.099
304.200	5.526	0.099
304.300	-6.640	0.099
304.400	-15.043	0.099
304.500	-21.996	0.099
304.600	-13.587	0.099
304.700	-17.927	0.100
304.800	-6.645	0.099
304.900	-5.261	0.099
305.000	-12.774	0.099
305.100	-21.062	0.099
305.200	-7.311	0.099
305.300	-12.315	0.099
305.400	-10.535	0.099
305.500	-22.071	0.099
305.600	-21.815	0.099
305.700	-10.141	0.099
305.800	-7.101	0.099
305.900	1.314	0.099
306.000	-15.483	0.099
306.100	-25.625	0.099
306.200	-2.786	0.099
306.300	-9.249	0.099
306.400	-21.157	0.099
306.500	-29.345	0.099
306.600	1.109	0.099
306.700	-9.076	0.099
306.800	-3.927	0.099
306.900	0.399	0.099
307.000	-3.379	0.099
307.100	-14.444	0.099
307.200	-3.693	0.099
307.300	-1.288	0.099
307.400	-12.919	0.099
307.500	-12.405	0.099
307.600	-22.011	0.099
307.700	-18.348	0.099
307.800	-9.941	0.099
307.900	-24.170	0.099
308.000	-17.726	0.099
308.100	-24.076	0.099
308.200	-10.428	0.099
308.300	3.371	0.099
308.400	0.613	0.099
308.500	-18.160	0.099
308.600	-17.189	0.099
308.700	-22.199	0.099
308.800	-3.579	0.099
308.900	-1.504	0.099
309.000	-4.740	0.099
309.100	-16.806	0.099
309.200	-30.267	0.099
309.300	-20.424	0.099
309.400	-11.597	0.099
309.500	3.488	0.099
309.600	-8.794	0.099
309.700	-13.712	0.099
309.800	6.252	0.099
309.900	6.017	0.099
310.000	-22.138	0.099
310.100	-8.076	0.099
310.200	5.401	0.099
310.300	-22.951	0.099
310.400	-7.131	0.099
310.500	-11.309	0.099
310.600	-27.956	0.099
310.700	3.791	0.099
310.800	-9.396	0.099
310.900	-7.548	0.100
311.000	-17.344	0.099
311.100	4.059	0.099
311.200	-18.709	0.099
311.300	-8.684	0.099
311.400	-3.343	0.099
311.500	-8.435	0.099
311.600	-3.636	0.099
311.700	-31.621	0.099
311.800	-16.688	0.099
311.900	-23.730	0.099
312.000	4.891	0.099
312.100	-1.258	0.099
312.200	3.185	0.099
312.300	-19.498	0.099
312.400	-23.378	0.099
312.500	-16.866	0.099
312.600	-6.279	0.099
312.700	7.940	0.099
312.800	-18.554	0.099
312.900	-8.272	0.099
313.000	-25.475	0.099
313.100	-12.144	0.099
313.200	-11.388	0.099
313.300	2.698	0.099
313.400	-22.020	0.099
313.500	0.828	0.099
313.600	-18.167	0.099
313.700	-11.030	0.099
313.800	-17.041	0.099
313.900	-3.054	0.099
314.000	-8.598	0.099
314.100	-9.021	0.099
314.200	-8.097	0.099
314.300	-21.368	0.099
314.400	-13.288	0.099
314.500	-3.116	0.099
314.600	-9.815	0.099
314.700	-16.263	0.099
314.800	-15.818	0.099
314.900	-2.293	0.099
315.000	-3.950	0.099
315.100	-0.544	0.099
315.200	-7.186	0.099
315.300	-19.512	0.099
315.400	-8.110	0.099
315.500	-10.213	0.099
315.600	-4.704	0.099
315.700	-8.965	0.099
315.800	-6.079	0.099
315.900	-18.535	0.099
316.000	-18.364	0.099
316.100	-14.795	0.099
316.200	-3.297	0.099
316.300	4.493	0.099
316.400	-13.828	0.099
316.500	-1.188	0.099
316.600	-18.329	0.100
316.700	-10.854	0.099
316.800	-14.394	0.099
316.900	-35.663	0.099
317.000	-9.884	0.099
317.100	-14.102	0.099
317.200	-10.421	0.099
317.300	-13.472	0.099
317.400	-11.423	0.099
317.500	-1.247	0.099
317.600	-7.719	0.099
317.700	-1.588	0.099
317.800	-12.570	0.099
317.900	-0.286	0.099
318.000	-20.534	0.099
318.100	-7.068	0.099
318.200	-12.190	0.099
318.300	-9.002	0.099
318.400	-2.634	0.099
318.500	-9.018	0.099
318.600	-16.772	0.099
318.700	-11.975	0.099
318.800	-14.280	0.099
318.900	-10.300	0.099
319.000	-4.856	0.099
319.100	-12.430	0.099
319.200	9.202	0.099
319.300	-3.144	0.099
319.400	-9.202	0.099
319.500	3.947	0.099
319.600	-4.419	0.099
319.700	-22.205	0.099
319.800	-8.604	0.100
319.900	-17.870	0.099
320.000	4.508	0.099
320.100	6.017	0.099
320.200	-20.345	0.099
320.300	-10.855	0.099
320.400	-9.844	0.100
320.500	-18.885	0.099
320.600	-10.029	0.099
320.700	4.340	0.099
320.800	-10.840	0.099
320.900	-12.833	0.099
321.000	-16.526	0.099
321.100	-2.089	0.099
321.200	-7.476	0.099
321.300	-25.866	0.099
321.400	-12.516	0.099
321.500	-2.146	0.099
321.600	-17.077	0.099
321.700	-15.913	0.099
321.800	-16.541	0.099
321.900	-9.931	0.099
322.000	-22.297	0.099
322.100	9.033	0.099
322.200	-14.075	0.099
322.300	10.748	0.099
322.400	-16.491	0.099
322.500	-7.317	0.099
322.600	-21.903	0.099
322.700	-12.645	0.099
322.800	-26.126	0.100
322.900	-25.864	0.099
323.000	-18.561	0.099
323.100	9.340	0.099
323.200	-10.764	0.099
323.300	3.390	0.099
323.400	1.603	0.099
323.500	-22.694	0.099
323.600	-28.190	0.099
323.700	-20.372	0.099
323.800	1.668	0.099
323.900	-9.278	0.099
324.000	-13.731	0.099
324.100	-6.271	0.099
324.200	-32.418	0.099
324.300	9.884	0.099
324.400	16.835	0.100
324.500	-7.466	0.099
324.600	-40.361	0.099
324.700	-10.707	0.099
324.800	-22.258	0.099
324.900	-8.068	0.099
325.000	-8.489	0.099
325.100	-12.810	0.099
325.200	-24.173	0.099
325.300	-3.233	0.099
325.400	6.173	0.099
325.500	-1.235	0.099
325.600	-13.444	0.099
325.700	-7.304	0.099
325.800	-11.751	0.099
325.900	-0.616	0.099
326.000	-17.940	0.099
326.100	-22.692	0.099
326.200	-8.796	0.099
326.300	7.836	0.099
326.400	-7.664	0.099
326.500	-26.723	0.099
326.600	6.143	0.099
326.700	-5.616	0.099
326.800	-18.136	0.100
326.900	1.302	0.099
327.000	-2.094	0.099
327.100	-8.732	0.099
327.200	-17.631	0.099
327.300	-15.336	0.099
327.400	-16.278	0.100
327.500	-9.878	0.099
327.600	-24.854	0.099
327.700	-11.515	0.099
327.800	2.915	0.099
327.900	-13.300	0.100
328.000	-3.480	0.100
328.100	-3.885	0.100
328.200	-6.428	0.099
328.300	-11.912	0.099
328.400	2.094	0.100
328.500	-5.460	0.100
328.600	-15.650	0.100
328.700	-24.328	0.099
328.800	-5.156	0.099
328.900	-10.593	0.099
329.000	-11.688	0.099
329.100	-8.435	0.099
329.200	11.161	0.099
329.300	-28.379	0.099
329.400	-10.933	0.100
329.500	-3.056	0.099
329.600	-30.168	0.099
329.700	4.766	0.099
329.800	-10.172	0.099
329.900	-0.764	0.099
330.000	-18.797	0.099
330.100	-10.461	0.099
330.200	-4.667	0.099
330.300	-13.861	0.099
330.400	-2.032	0.099
330.500	-3.469	0.099
330.600	-12.235	0.099
330.700	7.492	0.099
330.800	19.999	0.099
330.900	10.293	0.099
331.000	22.797	0.099
331.100	14.340	0.099
331.200	29.327	0.099
331.300	13.070	0.099
331.400	31.444	0.099
331.500	42.397	0.099
331.600	39.612	0.099
331.700	18.636	0.099
331.800	42.835	0.099
331.900	30.316	0.099
332.000	50.517	0.099
332.100	43.564	0.099
332.200	24.153	0.099
332.300	24.917	0.099
332.400	53.073	0.099
332.500	25.370	0.099
332.600	19.418	0.099
332.700	42.377	0.099
332.800	26.353	0.099
332.900	37.569	0.099
333.000	28.937	0.099
333.100	33.841	0.099
333.200	30.862	0.099
333.300	36.059	0.099
333.400	4.551	0.099
333.500	25.849	0.099
333.600	9.470	0.099
333.700	16.282	0.099
333.800	40.172	0.099
333.900	22.406	0.099
334.000	2.575	0.099
334.100	24.256	0.099
334.200	22.944	0.099
334.300	11.960	0.099
334.400	31.651	0.099
334.500	30.882	0.099
334.600	15.116	0.099
334.700	30.131	0.099
334.800	11.878	0.099
334.900	15.979	0.099
335.000	17.283	0.099
335.100	18.338	0.099
335.200	22.809	0.099
335.300	13.675	0.099
335.400	27.217	0.099
335.500	19.832	0.099
335.600	23.186	0.099
335.700	24.402	0.099
335.800	42.937	0.099
335.900	-2.254	0.099
336.000	11.547	0.099
336.100	1.566	0.099
336.200	26.087	0.099
336.300	32.143	0.099
336.400	-6.631	0.099
336.500	23.887	0.099
336.600	25.481	0.099
336.700	24.764	0.099
336.800	17.702	0.099
336.900	41.981	0.099
337.000	5.417	0.099
337.100	25.479	0.099
337.200	18.877	0.099
337.300	18.989	0.099
337.400	26.464	0.099
337.500	26.747	0.099
337.600	25.440	0.099
337.700	14.374	0.099
337.800	30.655	0.099
337.900	20.035	0.099
338.000	30.943	0.099
338.100	7.612	0.099
338.200	26.168	0.099
338.300	26.923	0.099
338.400	29.353	0.099
338.500	13.930	0.099
338.600	33.655	0.099
338.700	18.892	0.099
338.800	41.331	0.099
338.900	45.373	0.099
339.000	29.799	0.099
339.100	31.605	0.099
339.200	25.986	0.099
339.300	30.327	0.099
339.400	50.464	0.099
339.500	31.644	0.099
339.600	31.111	0.099
339.700	20.807	0.099
339.800	28.946	0.099
339.900	36.102	0.099
340.000	47.019	0.099
340.100	47.540	0.099
340.200	34.481	0.099
340.300	42.688	0.099
340.400	29.841	0.099
340.500	38.321	0.099
340.600	21.560	0.099
340.700	41.729	0.099
340.800	40.955	0.099
340.900	13.178	0.099
341.000	32.514	0.099
341.100	37.682	0.099
341.200	31.316	0.099
341.300	49.023	0.099
341.400	33.900	0.099
341.500	56.156	0.099
341.600	41.250	0.099
341.700	31.411	0.099
341.800	53.374	0.099
341.900	44.742	0.099
342.000	30.253	0.099
342.100	52.975	0.099
342.200	37.444	0.099
342.300	41.524	0.099
342.400	38.413	0.099
342.500	43.386	0.099
342.600	33.150	0.099
342.700	34.256	0.099
342.800	31.990	0.099
342.900	51.159	0.099
343.000	33.284	0.099
343.100	39.439	0.099
343.200	45.111	0.099
343.300	46.853	0.099
343.400	37.301	0.099
343.500	64.559	0.100
343.600	30.289	0.099
343.700	56.876	0.099
343.800	23.434	0.099
343.900	50.921	0.099
344.000	42.660	0.099
344.100	46.153	0.099
344.200	51.305	0.100
344.300	25.840	0.099
344.400	53.165	0.099
344.500	41.122	0.099
344.600	36.029	0.099
344.700	44.696	0.099
344.800	46.049	0.099
344.900	48.218	0.099
345.000	28.365	0.099
345.100	36.195	0.100
345.200	56.204	0.099
345.300	42.561	0.099
345.400	29.699	0.099
345.500	40.448	0.099
345.600	38.684	0.099
345.700	47.466	0.099
345.800	60.698	0.099
345.900	38.512	0.099
346.000	43.375	0.099
346.100	35.256	0.099
346.200	38.675	0.099
346.300	41.191	0.099
346.400	36.087	0.099
346.500	56.842	0.099
346.600	45.642	0.099
346.700	46.999	0.099
346.800	49.234	0.099
346.900	40.988	0.099
347.000	42.522	0.099
347.100	38.021	0.099
347.200	49.515	0.099
347.300	23.584	0.099
347.400	33.286	0.099
347.500	30.782	0.099
347.600	27.495	0.099
347.700	41.740	0.099
347.800	19.967	0.099
347.900	46.759	0.099
348.000	32.439	0.099
348.100	65.437	0.099
348.200	32.909	0.099
348.300	18.514	0.099
348.400	39.790	0.099
348.500	44.432	0.099
348.600	29.752	0.099
348.700	39.689	0.099
348.800	34.828	0.099
348.900	46.257	0.099
349.000	53.304	0.100
349.100	42.850	0.099
349.200	29.784	0.099
349.300	50.169	0.099
349.400	38.343	0.099
349.500	58.746	0.099
349.600	32.766	0.099
349.700	51.602	0.099
349.800	52.296	0.099
349.900	32.942	0.099
350.000	29.334	0.099
350.100	47.499	0.099
350.200	42.847	0.099
350.300	42.048	0.099
350.400	45.294	0.099
350.500	31.533	0.099
350.600	52.200	0.100
350.700	40.947	0.099
350.800	46.403	0.099
350.900	44.949	0.099
351.000	31.054	0.100
351.100	40.516	0.099
351.200	47.492	0.099
351.300	37.782	0.099
351.400	37.827	0.099
351.500	34.560	0.099
351.600	41.446	0.100
351.700	28.092	0.099
351.800	30.349	0.099
351.900	45.747	0.100
352.000	24.860	0.099
352.100	27.441	0.099
352.200	24.495	0.099
352.300	38.882	0.099
352.400	40.917	0.099
352.500	57.180	0.099
352.600	51.650	0.099
352.700	38.742	0.099
352.800	45.689	0.099
352.900	25.896	0.099
353.000	26.567	0.099
353.100	46.386	0.099
353.200	28.056	0.099
353.300	44.794	0.099
353.400	41.991	0.100
353.500	21.266	0.099
353.600	37.088	0.099
353.700	19.329	0.100
353.800	37.407	0.099
353.900	42.493	0.100
354.000	23.144	0.100
354.100	27.703	0.100
354.200	29.085	0.099
354.300	32.521	0.099
354.400	42.429	0.099
354.500	40.834	0.100
354.600	38.869	0.099
354.700	36.997	0.099
354.800	27.853	0.099
354.900	32.812	0.099
355.000	44.028	0.099
355.100	31.169	0.099
355.200	52.021	0.100
355.300	36.275	0.099
355.400	38.000	0.099
355.500	27.739	0.099
355.600	38.919	0.100
355.700	39.200	0.099
355.800	39.463	0.099
355.900	42.826	0.100
356.000	27.557	0.099
356.100	18.369	0.099
356.200	43.967	0.099
356.300	18.846	0.099
356.400	36.787	0.099
356.500	44.610	0.099
356.600	35.510	0.099
356.700	43.431	0.099
356.800	26.069	0.099
356.900	31.720	0.099
357.000	41.260	0.099
357.100	24.569	0.099
357.200	54.854	0.099
357.300	18.696	0.099
357.400	56.788	0.099
357.500	41.862	0.099
357.600	45.458	0.099
357.700	11.339	0.099
357.800	49.903	0.099
357.900	52.003	0.099
358.000	35.256	0.099
358.100	25.842	0.099
358.200	24.140	0.099
358.300	36.070	0.099
358.400	15.403	0.100
358.500	47.719	0.099
358.600	44.852	0.099
358.700	37.027	0.099
358.800	33.914	0.100
358.900	30.508	0.099
359.000	33.672	0.099
359.100	28.531	0.099
359.200	45.114	0.100
359.300	7.541	0.099
359.400	41.896	0.100
359.500	31.036	0.099
359.600	22.746	0.099
359.700	12.160	0.099
359.800	36.647	0.099
359.900	31.395	0.099
360.000	38.135	0.099
360.100	26.623	0.099
360.200	19.608	0.099
360.300	48.633	0.100
360.400	28.684	0.099
360.500	40.068	0.099
360.600	42.164	0.099
360.700	35.028	0.099
360.800	32.137	0.099
360.900	44.610	0.099
361.000	21.948	0.099
361.100	17.670	0.099
361.200	52.276	0.099
361.300	35.880	0.099
361.400	37.522	0.099
361.500	32.932	0.099
361.600	49.507	0.099
361.700	28.549	0.099
361.800	20.136	0.099
361.900	28.702	0.099
362.000	25.359	0.099
362.100	30.035	0.099
362.200	41.373	0.099
362.300	41.738	0.099
362.400	19.545	0.099
362.500	48.546	0.099
362.600	26.189	0.099
362.700	37.283	0.099
362.800	36.696	0.099
362.900	26.529	0.099
363.000	37.864	0.099
363.100	29.652	0.099
363.200	35.939	0.099
363.300	14.249	0.099
363.400	28.255	0.099
363.500	38.713	0.099
363.600	31.778	0.099
363.700	48.451	0.099
363.800	41.236	0.099
363.900	24.488	0.099
364.000	41.397	0.099
364.100	41.341	0.099
364.200	40.390	0.100
364.300	32.490	0.099
364.400	35.106	0.099
364.500	31.086	0.099
364.600	25.938	0.099
364.700	28.661	0.099
364.800	36.950	0.099
364.900	48.535	0.099
365.000	45.385	0.099
365.100	17.532	0.099
365.200	29.703	0.099
365.300	29.915	0.099
365.400	35.550	0.099
365.500	13.054	0.099
365.600	41.589	0.099
365.700	40.956	0.100
365.800	35.575	0.100
365.900	31.005	0.099
366.000	30.929	0.099
366.100	31.579	0.099
366.200	28.623	0.099
366.300	34.572	0.099
366.400	30.278	0.099
366.500	35.693	0.099
366.600	23.290	0.099
366.700	46.348	0.099
366.800	43.005	0.099
366.900	33.356	0.099
367.000	35.305	0.099
367.100	13.477	0.099
367.200	43.405	0.099
367.300	35.549	0.100
367.400	29.533	0.099
367.500	47.740	0.099
367.600	26.615	0.100
367.700	34.217	0.099
367.800	15.935	0.099
367.900	33.140	0.100
368.000	38.539	0.100
368.100	19.479	0.099
368.200	26.285	0.099
368.300	43.578	0.099
368.400	23.050	0.099
368.500	38.278	0.099
368.600	12.615	0.099
368.700	32.106	0.099
368.800	16.450	0.099
368.900	34.814	0.099
369.000	33.322	0.099
369.100	40.895	0.099
369.200	1.972	0.099
369.300	20.618	0.099
369.400	47.703	0.099
369.500	30.628	0.099
369.600	40.568	0.100
369.700	32.448	0.099
369.800	32.280	0.099
369.900	17.457	0.099
370.000	40.221	0.099
370.100	53.522	0.100
370.200	17.166	0.099
370.300	30.990	0.099
370.400	54.991	0.099
370.500	33.465	0.099
370.600	32.520	0.099
370.700	29.240	0.100
370.800	37.612	0.099
370.900	27.028	0.099
371.000	17.282	0.099
371.100	40.411	0.099
371.200	23.008	0.099
371.300	34.098	0.099
371.400	43.096	0.099
371.500	27.606	0.099
371.600	19.339	0.099
371.700	19.924	0.099
371.800	34.672	0.099
371.900	44.069	0.099
372.000	41.981	0.099
372.100	27.303	0.099
372.200	21.896	0.099
372.300	26.664	0.099
372.400	37.743	0.099
372.500	48.627	0.100
372.600	46.212	0.099
372.700	25.489	0.099
372.800	28.033	0.099
372.900	35.956	0.099
373.000	28.991	0.099
373.100	30.589	0.099
373.200	35.094	0.099
373.300	35.822	0.099
373.400	11.348	0.099
373.500	19.068	0.099
373.600	49.189	0.099
373.700	39.776	0.100
373.800	31.058	0.099
373.900	26.949	0.099
374.000	37.802	0.099
374.100	47.002	0.099
374.200	40.541	0.099
374.300	36.025	0.099
374.400	31.513	0.099
374.500	28.637	0.099
374.600	23.835	0.099
374.700	27.575	0.099
374.800	29.734	0.099
374.900	28.138	0.099
375.000	27.991	0.099
375.100	9.464	0.099
375.200	47.205	0.099
375.300	42.076	0.100
375.400	41.058	0.099
375.500	31.567	0.099
375.600	35.521	0.099
375.700	24.664	0.099
375.800	22.705	0.099
375.900	47.642	0.099
376.000	47.949	0.099
376.100	47.135	0.099
376.200	27.897	0.099
376.300	36.113	0.099
376.400	13.830	0.099
376.500	32.896	0.099
376.600	32.718	0.099
376.700	36.923	0.099
376.800	30.238	0.099
376.900	24.881	0.099
377.000	18.573	0.099
377.100	34.322	0.099
377.200	36.856	0.099
377.300	31.004	0.099
377.400	16.390	0.099
377.500	25.685	0.099
377.600	31.944	0.099
377.700	20.888	0.099
377.800	41.715	0.099
377.900	33.598	0.099
378.000	28.315	0.099
378.100	25.687	0.099
378.200	42.930	0.099
378.300	34.499	0.099
378.400	26.318	0.099
378.500	40.978	0.099
378.600	34.709	0.099
378.700	38.498	0.099
378.800	39.685	0.099
378.900	31.881	0.099
379.000	29.536	0.099
379.100	22.729	0.099
379.200	57.122	0.099
379.300	32.916	0.099
379.400	26.882	0.099
379.500	28.930	0.099
379.600	19.452	0.099
379.700	2.459	0.099
379.800	54.058	0.099
379.900	33.990	0.099
380.000	39.731	0.099
380.100	27.190	0.099
380.200	22.116	0.099
380.300	29.742	0.099
380.400	35.649	0.099
380.500	31.603	0.099
380.600	45.609	0.099
380.700	14.910	0.099
380.800	35.804	0.099
380.900	25.694	0.099
381.000	40.574	0.099
381.100	18.285	0.099
381.200	21.751	0.099
381.300	26.893	0.099
381.400	22.811	0.099
381.500	35.574	0.099
381.600	30.033	0.099
381.700	36.350	0.099
381.800	10.144	0.099
381.900	31.575	0.099
382.000	42.783	0.099
382.100	44.141	0.099
382.200	22.928	0.100
382.300	27.773	0.099
382.400	35.164	0.099
382.500	14.250	0.099
382.600	24.815	0.099
382.700	23.461	0.099
382.800	42.270	0.099
382.900	34.824	0.099
383.000	19.529	0.099
383.100	48.154	0.099
383.200	24.256	0.099
383.300	31.617	0.099
383.400	20.066	0.099
383.500	20.314	0.099
383.600	42.481	0.099
383.700	48.905	0.099
383.800	44.765	0.099
383.900	21.620	0.099
384.000	25.478	0.099
384.100	29.934	0.099
384.200	41.792	0.099
384.300	37.189	0.099
384.400	20.271	0.099
384.500	30.481	0.099
384.600	25.215	0.099
384.700	38.263	0.099
384.800	33.415	0.099
384.900	24.457	0.099
385.000	26.081	0.099
385.100	40.437	0.099
385.200	28.242	0.099
385.300	25.370	0.099
385.400	27.905	0.099
385.500	27.294	0.099
385.600	22.151	0.099
385.700	23.323	0.099
385.800	35.648	0.099
385.900	39.106	0.099
386.000	29.074	0.099
386.100	31.219	0.099
386.200	44.938	0.099
386.300	31.539	0.099
386.400	34.289	0.099
386.500	19.270	0.099
386.600	16.237	0.099
386.700	22.973	0.099
386.800	18.140	0.099
386.900	35.835	0.099
387.000	21.422	0.099
387.100	39.810	0.099
387.200	34.090	0.099
387.300	27.067	0.099
387.400	43.297	0.099
387.500	24.603	0.099
387.600	31.989	0.099
387.700	25.642	0.099
387.800	34.532	0.099
387.900	33.976	0.099
388.000	19.483	0.099
388.100	25.445	0.099
388.200	25.443	0.099
388.300	14.105	0.099
388.400	49.293	0.099
388.500	29.460	0.099
388.600	36.305	0.099
388.700	27.829	0.099
388.800	29.498	0.099
388.900	37.281	0.099
389.000	21.746	0.099
389.100	19.594	0.099
389.200	37.094	0.099
389.300	25.192	0.099
389.400	26.928	0.099
389.500	47.350	0.099
389.600	40.825	0.099
389.700	13.418	0.099
389.800	22.314	0.099
389.900	37.615	0.099
390.000	33.767	0.099
390.100	31.180	0.099
390.200	22.742	0.099
390.300	30.315	0.099
390.400	34.390	0.099
390.500	29.096	0.099
390.600	-5.599	0.099
390.700	22.418	0.099
390.800	15.888	0.099
390.900	-10.393	0.099
391.000	-14.890	0.099
391.100	15.727	0.099
391.200	-9.716	0.099
391.300	-15.430	0.099
391.400	-7.760	0.099
391.500	-49.310	0.099
391.600	4.356	0.099
391.700	-11.014	0.099
391.800	-7.796	0.099
391.900	-17.425	0.099
392.000	-21.495	0.099
392.100	-15.446	0.099
392.200	-11.997	0.099
392.300	-26.099	0.099
392.400	3.868	0.099
392.500	-37.712	0.099
392.600	-17.749	0.099
392.700	-23.012	0.099
392.800	2.946	0.099
392.900	-32.380	0.099
393.000	-21.892	0.099
393.100	1.001	0.099
393.200	-30.935	0.099
393.300	-25.130	0.099
393.400	-8.789	0.099
393.500	-28.449	0.099
393.600	-18.530	0.099
393.700	-18.486	0.099
393.800	-30.965	0.099
393.900	-15.861	0.099
394.000	-31.419	0.099
394.100	-26.157	0.099
394.200	-10.929	0.099
394.300	-21.207	0.099
394.400	-16.675	0.099
394.500	-26.458	0.099
394.600	-26.919	0.099
394.700	-23.949	0.099
394.800	-15.083	0.099
394.900	-11.016	0.099
395.000	-42.318	0.099
395.100	-26.643	0.099
395.200	-15.380	0.099
395.300	-23.688	0.099
395.400	-11.144	0.099
395.500	-23.926	0.099
395.600	-16.926	0.099
395.700	-18.272	0.099
395.800	-14.250	0.099
395.900	-36.616	0.099
396.000	-16.106	0.099
396.100	-3.864	0.099
396.200	-21.179	0.099
396.300	-16.004	0.099
396.400	-30.022	0.099
396.500	-16.491	0.099
396.600	-26.489	0.099
396.700	-6.528	0.099
396.800	-24.238	0.099
396.900	-29.136	0.099
397.000	-7.185	0.099
397.100	-27.712	0.099
397.200	-14.687	0.099
397.300	-8.489	0.099
397.400	-25.654	0.099
397.500	-0.811	0.099
397.600	-3.843	0.099
397.700	-19.895	0.099
397.800	-24.360	0.099
397.900	-18.383	0.099
398.000	-8.249	0.099
398.100	-12.903	0.099
398.200	-30.172	0.099
398.300	-21.885	0.099
398.400	-15.267	0.099
398.500	-10.277	0.099
398.600	-24.310	0.099
398.700	-9.437	0.099
398.800	-11.353	0.099
398.900	-12.925	0.099
399.000	-20.702	0.099
399.100	-21.170	0.099
399.200	-23.533	0.099
399.300	-10.028	0.099
399.400	-24.114	0.099
399.500	-26.785	0.099
399.600	-12.313	0.099
399.700	-20.749	0.099
399.800	-18.435	0.099
399.900	-14.685	0.099
400.000	-5.898	0.099
400.100	-19.210	0.099
400.200	-27.350	0.099
400.300	-14.553	0.099
400.400	-17.418	0.099
400.500	-25.841	0.099
400.600	-32.736	0.099
400.700	-31.715	0.099
400.800	0.027	0.099
400.900	-13.824	0.099
401.000	-22.045	0.099
401.100	-17.242	0.099
401.200	-13.508	0.099
401.300	-22.153	0.099
401.400	-31.541	0.099
401.500	-7.623	0.099
401.600	-28.192	0.099
401.700	-16.231	0.099
401.800	-35.781	0.099
401.900	-10.469	0.099
402.000	-24.029	0.099
402.100	-30.696	0.099
402.200	-15.396	0.099
402.300	-19.098	0.099
402.400	-14.380	0.099
402.500	-12.572	0.099
402.600	-25.163	0.099
402.700	-15.972	0.099
402.800	-14.171	0.099
402.900	-26.404	0.099
403.000	-12.159	0.099
403.100	-22.870	0.099
403.200	-24.247	0.099
403.300	-29.710	0.099
403.400	-14.465	0.099
403.500	-20.762	0.099
403.600	-34.626	0.099
403.700	-42.320	0.099
403.800	-14.866	0.099
403.900	-14.219	0.099
404.000	-24.857	0.099
404.100	-26.663	0.099
404.200	-17.621	0.099
404.300	-19.977	0.099
404.400	-21.959	0.099
404.500	-15.780	0.099
404.600	2.253	0.099
404.700	-19.967	0.099
404.800	-42.627	0.099
404.900	-27.527	0.099
405.000	-21.741	0.099
405.100	-9.811	0.099
405.200	-30.469	0.099
405.300	-31.221	0.099
405.400	-20.198	0.099
405.500	-12.218	0.099
405.600	-15.795	0.099
405.700	-14.541	0.099
405.800	-26.592	0.099
405.900	-14.765	0.099
406.000	-16.143	0.099
406.100	-24.302	0.099
406.200	-21.995	0.099
406.300	-22.182	0.099
406.400	-17.216	0.099
406.500	-32.672	0.099
406.600	-17.680	0.099
406.700	-19.100	0.099
406.800	-29.367	0.099
406.900	-19.057	0.099
407.000	-23.803	0.099
407.100	-10.759	0.099
407.200	-20.154	0.099
407.300	-10.892	0.099
407.400	-24.901	0.099
407.500	-16.309	0.099
407.600	-17.312	0.099
407.700	-25.642	0.099
407.800	-37.414	0.099
407.900	-17.865	0.099
408.000	-37.696	0.099
408.100	-24.798	0.099
408.200	-15.361	0.099
408.300	-32.834	0.099
408.400	0.655	0.099
408.500	-21.103	0.099
408.600	-2.391	0.099
408.700	-29.512	0.099
408.800	-22.399	0.099
408.900	-22.780	0.099
409.000	-17.999	0.099
409.100	-24.967	0.099
409.200	-13.226	0.099
409.300	-28.603	0.099
409.400	-24.526	0.099
409.500	-22.676	0.099
409.600	-17.559	0.099
409.700	-30.422	0.099
409.800	-23.134	0.099
409.900	-15.571	0.099
410.000	-14.724	0.099
410.100	-21.709	0.099
410.200	-25.954	0.099
410.300	-15.160	0.099
410.400	-21.664	0.099
410.500	-15.022	0.099
410.600	-15.659	0.099
410.700	-18.424	0.099
410.800	-11.956	0.099
410.900	-46.400	0.099
411.000	1.126	0.099
411.100	-21.775	0.099
411.200	-21.954	0.099
411.300	-16.113	0.099
411.400	-24.013	0.099
411.500	-29.834	0.099
411.600	-15.578	0.099
411.700	-9.505	0.099
411.800	-8.005	0.099
411.900	-41.366	0.099
412.000	-5.134	0.099
412.100	-11.478	0.099
412.200	-20.456	0.099
412.300	-18.593	0.099
412.400	-23.180	0.099
412.500	-20.261	0.099
412.600	-28.512	0.099
412.700	-19.204	0.099
412.800	-23.841	0.099
412.900	-18.850	0.099
413.000	-16.753	0.099
413.100	-25.233	0.099
413.200	-21.416	0.099
413.300	-17.125	0.099
413.400	-30.307	0.099
413.500	-13.968	0.099
413.600	-10.802	0.099
413.700	-37.599	0.099
413.800	-28.984	0.099
413.900	-19.230	0.099
414.000	-9.030	0.099
414.100	-3.353	0.099
414.200	-10.376	0.099
414.300	-31.227	0.099
414.400	-17.052	0.099
414.500	-12.485	0.099
414.600	-10.564	0.099
414.700	-24.893	0.099
414.800	-8.445	0.099
414.900	-17.138	0.099
415.000	-45.137	0.099
415.100	-35.170	0.099
415.200	-26.722	0.099
415.300	-21.256	0.099
415.400	-31.928	0.099
415.500	-27.834	0.099
415.600	-15.867	0.099
415.700	-12.479	0.099
415.800	-21.788	0.099
415.900	-18.472	0.099
416.000	-28.378	0.099
416.100	-37.388	0.099
416.200	-25.166	0.099
416.300	-14.088	0.099
416.400	-13.555	0.099
416.500	-39.408	0.099
416.600	-24.820	0.099
416.700	-6.454	0.099
416.800	-22.476	0.099
416.900	-38.411	0.099
417.000	-27.715	0.099
417.100	-16.587	0.099
417.200	-17.501	0.099
417.300	-26.445	0.099
417.400	-19.766	0.099
417.500	-31.045	0.099
417.600	-21.212	0.099
417.700	-27.422	0.099
417.800	-13.825	0.099
417.900	-16.258	0.099
418.000	-9.194	0.099
418.100	-41.286	0.099
418.200	-27.035	0.099
418.300	-21.894	0.099
418.400	-17.709	0.099
418.500	-26.441	0.099
418.600	-3.395	0.099
418.700	-34.613	0.099
418.800	-29.474	0.099
418.900	-29.073	0.099
419.000	-10.399	0.099
419.100	-18.400	0.099
419.200	-24.684	0.099
419.300	-21.254	0.099
419.400	-18.726	0.099
419.500	-29.445	0.099
419.600	-14.734	0.099
419.700	-29.564	0.099
419.800	-26.649	0.099
419.900	-26.639	0.099
420.000	-16.812	0.099
420.100	-40.671	0.099
420.200	-31.069	0.099
420.300	-8.593	0.099
420.400	-27.677	0.099
420.500	-29.451	0.099
420.600	-33.510	0.099
420.700	-31.279	0.099
420.800	-9.900	0.099
420.900	-22.580	0.099
421.000	-6.054	0.099
421.100	-12.226	0.099
421.200	-15.478	0.099
421.300	-25.215	0.100
421.400	-24.243	0.099
421.500	-12.679	0.099
421.600	-23.130	0.099
421.700	-18.393	0.099
421.800	-36.157	0.099
421.900	-21.654	0.099
422.000	-14.221	0.099
422.100	-25.320	0.099
422.200	-28.270	0.099
422.300	-17.824	0.099
422.400	-31.504	0.099
422.500	-33.524	0.099
422.600	-22.127	0.099
422.700	-22.172	0.099
422.800	-15.777	0.099
422.900	-18.043	0.099
423.000	-18.965	0.099
423.100	-7.083	0.099
423.200	-18.481	0.099
423.300	-17.593	0.099
423.400	-22.342	0.099
423.500	-35.776	0.099
423.600	-16.302	0.099
423.700	-15.757	0.099
423.800	-16.921	0.099
423.900	-22.164	0.099
424.000	-18.315	0.099
424.100	-29.787	0.099
424.200	-12.324	0.099
424.300	-24.485	0.099
424.400	-21.700	0.099
424.500	-19.355	0.099
424.600	-22.100	0.099
424.700	-11.499	0.099
424.800	-28.998	0.099
424.900	-18.764	0.099
425.000	-21.590	0.099
425.100	-14.484	0.099
425.200	-22.571	0.099
425.300	-20.417	0.099
425.400	-22.236	0.099
425.500	-39.294	0.099
425.600	2.135	0.099
425.700	-9.784	0.099
425.800	-21.606	0.099
425.900	-27.710	0.099
426.000	-20.237	0.099
426.100	-28.417	0.099
426.200	-29.790	0.099
426.300	-6.021	0.099
426.400	-22.358	0.099
426.500	-12.897	0.099
426.600	-16.752	0.099
426.700	-26.722	0.099
426.800	-26.522	0.099
426.900	-29.237	0.099
427.000	-22.145	0.099
427.100	-49.725	0.099
427.200	3.740	0.099
427.300	-21.909	0.099
427.400	-23.563	0.099
427.500	-27.092	0.099
427.600	-25.106	0.099
427.700	-22.108	0.099
427.800	-22.607	0.099
427.900	-29.322	0.099
428.000	-10.472	0.099
428.100	-0.637	0.099
428.200	-22.023	0.099
428.300	-19.639	0.099
428.400	-30.797	0.099
428.500	-8.039	0.099
428.600	-18.021	0.099
428.700	-27.730	0.099
428.800	-15.165	0.099
428.900	-38.953	0.099
429.000	2.700	0.099
429.100	-20.837	0.099
429.200	-36.009	0.099
429.300	-11.242	0.099
429.400	-18.429	0.099
429.500	-18.742	0.099
429.600	-15.054	0.099
429.700	-33.469	0.099
429.800	-16.554	0.099
429.900	-23.866	0.099
430.000	-36.255	0.099
430.100	-20.740	0.099
430.200	-13.724	0.099
430.300	-22.251	0.099
430.400	-20.732	0.099
430.500	-10.807	0.099
430.600	-38.212	0.099
430.700	-8.695	0.099
430.800	-6.213	0.099
430.900	-28.900	0.099
431.000	-23.298	0.099
431.100	-9.668	0.099
431.200	-19.149	0.099
431.300	-26.413	0.099
431.400	-11.101	0.099
431.500	-5.337	0.099
431.600	-22.050	0.099
431.700	-26.950	0.099
431.800	-38.649	0.099
431.900	-22.307	0.099
432.000	-9.790	0.099
432.100	-20.683	0.099
432.200	-8.152	0.099
432.300	-10.341	0.099
432.400	-25.104	0.099
432.500	-12.126	0.099
432.600	-1.013	0.099
432.700	-20.232	0.099
432.800	-11.012	0.099
432.900	-15.631	0.099
433.000	0.250	0.099
433.100	-30.108	0.099
433.200	-28.648	0.099
433.300	-21.689	0.099
433.400	-7.652	0.099
433.500	-12.811	0.099
433.600	-30.528	0.099
433.700	-20.872	0.099
433.800	-32.046	0.099
433.900	-3.345	0.099
434.000	-19.425	0.099
434.100	-25.175	0.099
434.200	-10.991	0.099
434.300	-28.534	0.099
434.400	-17.585	0.099
434.500	-13.572	0.099
434.600	-11.784	0.099
434.700	-19.922	0.099
434.800	-24.265	0.099
434.900	-24.014	0.099
435.000	-0.374	0.099
435.100	-17.826	0.099
435.200	-25.896	0.099
435.300	-31.076	0.099
435.400	-20.911	0.099
435.500	-25.595	0.099
435.600	3.040	0.099
435.700	-9.777	0.099
435.800	-11.922	0.099
435.900	-31.952	0.099
436.000	-4.403	0.099
436.100	-11.941	0.099
436.200	-17.192	0.099
436.300	-13.826	0.099
436.400	-16.134	0.099
436.500	-1.454	0.099
436.600	-7.335	0.099
436.700	-18.369	0.099
436.800	-13.831	0.099
436.900	-12.898	0.099
437.000	-9.622	0.099
437.100	-19.289	0.099
437.200	-7.611	0.099
437.300	-37.858	0.099
437.400	-25.163	0.099
437.500	-16.528	0.099
437.600	-21.420	0.099
437.700	-22.731	0.099
437.800	-8.145	0.099
437.900	-22.363	0.099
438.000	-36.675	0.099
438.100	5.415	0.099
438.200	-28.441	0.099
438.300	-14.432	0.099
438.400	-12.690	0.099
438.500	-8.258	0.099
438.600	-17.501	0.099
438.700	-8.039	0.099
438.800	-25.312	0.099
438.900	-35.722	0.099
439.000	-8.752	0.099
439.100	-26.388	0.100
439.200	-33.762	0.099
439.300	-5.613	0.099
439.400	-11.661	0.099
439.500	-10.086	0.099
439.600	-35.604	0.099
439.700	-5.068	0.099
439.800	-9.493	0.099
439.900	-23.510	0.099
440.000	-22.189	0.099
440.100	-6.999	0.099
440.200	-17.049	0.099
440.300	-11.525	0.099
440.400	-20.073	0.099
440.500	-15.772	0.099
440.600	-20.393	0.099
440.700	0.927	0.100
440.800	-16.014	0.099
440.900	-11.866	0.099
441.000	-16.463	0.099
441.100	-16.852	0.099
441.200	-19.864	0.099
441.300	-8.937	0.100
441.400	-11.184	0.099
441.500	-5.548	0.099
441.600	-27.166	0.099
441.700	-22.855	0.099
441.800	-28.619	0.099
441.900	-9.902	0.099
442.000	-10.568	0.099
442.100	-14.410	0.099
442.200	-23.131	0.099
442.300	-29.176	0.099
442.400	-5.257	0.099
442.500	-7.030	0.099
442.600	-13.136	0.099
442.700	-9.252	0.099
442.800	-20.084	0.099
442.900	-16.560	0.099
443.000	-13.369	0.099
443.100	-21.631	0.099
443.200	-13.208	0.099
443.300	-10.734	0.099
443.400	-21.423	0.099
443.500	-18.289	0.099
443.600	-22.736	0.099
443.700	-7.476	0.099
443.800	-27.530	0.099
443.900	-18.426	0.099
444.000	-11.447	0.099
444.100	-26.194	0.099
444.200	-14.308	0.099
444.300	4.813	0.099
444.400	-23.132	0.099
444.500	-17.218	0.099
444.600	-11.388	0.099
444.700	-1.116	0.099
444.800	-21.084	0.099
444.900	-24.762	0.099
445.000	-5.727	0.099
445.100	-8.905	0.099
445.200	-13.064	0.099
445.300	-13.046	0.099
445.400	-12.500	0.099
445.500	-43.000	0.099
445.600	3.577	0.099
445.700	-15.348	0.099
445.800	-14.056	0.099
445.900	-10.244	0.099
446.000	-27.150	0.099
446.100	-11.770	0.099
446.200	-11.496	0.099
446.300	-21.210	0.099
446.400	-13.216	0.099
446.500	-9.066	0.099
446.600	5.232	0.099
446.700	-17.560	0.099
446.800	-7.814	0.099
446.900	-13.070	0.099
447.000	-19.396	0.099
447.100	-22.699	0.099
447.200	-9.573	0.099
447.300	6.890	0.099
447.400	-14.149	0.099
447.500	-18.690	0.099
447.600	-15.953	0.099
447.700	-14.697	0.099
447.800	-14.215	0.099
447.900	-7.544	0.099
448.000	-11.100	0.099
448.100	-15.640	0.099
448.200	-13.736	0.099
448.300	-26.247	0.099
448.400	-13.196	0.099
448.500	-35.383	0.099
448.600	-2.447	0.099
448.700	-11.569	0.099
448.800	7.225	0.099
448.900	-18.780	0.099
449.000	-4.595	0.099
449.100	-21.369	0.099
449.200	-7.503	0.099
449.300	-26.565	0.099
449.400	-6.293	0.099
449.500	-21.871	0.099
449.600	-6.562	0.099
449.700	-24.340	0.099
449.800	-18.168	0.099
449.900	-25.074	0.099
450.000	-24.332	0.099
450.100	5.436	0.099
450.200	-15.918	0.099
450.300	-11.391	0.099
450.400	-5.398	0.099
450.500	-16.330	0.099
450.600	-30.231	0.099
450.700	-2.385	0.099
450.800	-10.025	0.099
450.900	-12.645	0.099
451.000	-8.326	0.099
451.100	-0.191	0.099
451.200	-8.393	0.099
451.300	-26.209	0.099
451.400	-20.439	0.099
451.500	-16.694	0.099
451.600	-12.465	0.099
451.700	-11.076	0.099
451.800	-8.840	0.099
451.900	-10.440	0.100
452.000	-30.110	0.099
452.100	-15.725	0.099
452.200	-4.623	0.099
452.300	-18.553	0.099
452.400	-9.121	0.099
452.500	-16.869	0.099
452.600	-17.577	0.099
452.700	-23.894	0.099
452.800	-17.264	0.099
452.900	6.044	0.099
453.000	-26.986	0.099
453.100	-15.965	0.099
453.200	-12.999	0.099
453.300	-14.878	0.099
453.400	-5.969	0.099
453.500	6.453	0.099
453.600	-17.213	0.099
453.700	-20.222	0.099
453.800	-19.211	0.099
453.900	-0.401	0.099
454.000	-17.251	0.099
454.100	-7.790	0.099
454.200	-2.817	0.099
454.300	-21.411	0.099
454.400	-22.382	0.099
454.500	-10.596	0.099
454.600	-15.249	0.099
454.700	-6.641	0.099
454.800	-20.420	0.099
454.900	-23.441	0.099
455.000	-2.731	0.099
455.100	-23.513	0.099
455.200	0.596	0.099
455.300	-25.202	0.099
455.400	-7.691	0.099
455.500	-6.360	0.099
455.600	-33.063	0.099
455.700	6.410	0.099
455.800	-26.710	0.099
455.900	4.028	0.099
456.000	-14.779	0.099
456.100	-23.659	0.099
456.200	-13.505	0.099
456.300	-2.921	0.099
456.400	-20.597	0.099
456.500	-0.663	0.099
456.600	-18.789	0.099
456.700	-4.980	0.099
456.800	5.092	0.099
456.900	-33.825	0.099
457.000	-12.561	0.099
457.100	-12.218	0.099
457.200	-31.667	0.099
457.300	-2.192	0.099
457.400	-15.633	0.099
457.500	-21.598	0.099
457.600	7.731	0.099
457.700	0.241	0.099
457.800	-12.423	0.099
457.900	-24.633	0.099
458.000	-13.750	0.099
458.100	-14.886	0.099
458.200	-7.705	0.099
458.300	-18.216	0.099
458.400	-14.504	0.100
458.500	-34.069	0.099
458.600	-11.961	0.099
458.700	-12.327	0.099
458.800	1.120	0.099
458.900	-5.880	0.099
459.000	-19.505	0.099
459.100	-13.291	0.099
459.200	-5.910	0.099
459.300	-8.501	0.099
459.400	-16.340	0.099
459.500	-31.403	0.099
459.600	-20.686	0.099
459.700	-12.226	0.099
459.800	-3.249	0.099
459.900	-20.798	0.099
460.000	-25.250	0.099
460.100	-3.412	0.099
460.200	-15.732	0.099
460.300	1.685	0.099
460.400	-25.880	0.099
460.500	-11.354	0.099
460.600	-5.952	0.099
460.700	-9.813	0.099
460.800	-6.751	0.099
460.900	-7.969	0.099
461.000	-2.415	0.099
461.100	-18.174	0.099
461.200	5.232	0.099
461.300	-23.746	0.099
461.400	-15.827	0.099
461.500	-20.674	0.099
461.600	-4.745	0.099
461.700	-17.819	0.099
461.800	-17.118	0.099
461.900	-19.953	0.099
462.000	-5.846	0.099
462.100	1.446	0.099
462.200	-10.920	0.099
462.300	-16.514	0.099
462.400	-16.690	0.099
462.500	-24.297	0.099
462.600	-11.392	0.099
462.700	-20.365	0.099
462.800	-9.571	0.099
462.900	-24.853	0.099
463.000	-8.284	0.099
463.100	-4.301	0.099
463.200	-7.318	0.099
463.300	2.458	0.099
463.400	-19.757	0.099
463.500	-12.773	0.099
463.600	-9.214	0.099
463.700	-16.324	0.099
463.800	-10.611	0.099
463.900	-11.801	0.099
464.000	-17.885	0.099
464.100	-15.358	0.099
464.200	-11.038	0.099
464.300	-19.855	0.099
464.400	-7.989	0.099
464.500	17.175	0.099
464.600	-12.641	0.099
464.700	-5.196	0.099
464.800	3.824	0.100
464.900	-14.654	0.099
465.000	-16.085	0.099
465.100	-19.345	0.099
465.200	-15.673	0.099
465.300	-4.213	0.099
465.400	-12.901	0.099
465.500	-6.467	0.099
465.600	-1.059	0.099
465.700	-24.914	0.099
465.800	-30.614	0.099
465.900	-26.516	0.099
466.000	-17.520	0.099
466.100	-6.376	0.099
466.200	-8.748	0.099
466.300	-19.613	0.099
466.400	-8.526	0.099
466.500	-13.876	0.099
466.600	-18.156	0.099
466.700	4.532	0.099
466.800	-10.001	0.099
466.900	-13.411	0.099
467.000	-0.905	0.099
467.100	-22.415	0.099
467.200	-7.155	0.099
467.300	-11.000	0.099
467.400	-8.089	0.099
467.500	-7.636	0.099
467.600	-13.615	0.099
467.700	-7.009	0.099
467.800	-3.889	0.099
467.900	-21.484	0.099
468.000	-6.838	0.099
468.100	-10.844	0.099
468.200	-1.845	0.099
468.300	-11.105	0.099
468.400	-14.927	0.099
468.500	-17.774	0.099
468.600	-19.838	0.099
468.700	-7.118	0.099
468.800	-0.740	0.099
468.900	-14.408	0.099
469.000	-18.824	0.099
469.100	4.922	0.099
469.200	-22.257	0.099
469.300	-12.813	0.099
469.400	-5.362	0.099
469.500	-19.352	0.099
469.600	-35.982	0.099
469.700	9.594	0.099
469.800	-11.613	0.099
469.900	-15.248	0.099
470.000	-11.493	0.099
470.100	-23.441	0.099
470.200	-30.367	0.099
470.300	-10.748	0.099
470.400	3.354	0.099
470.500	-4.394	0.099
470.600	-17.355	0.099
470.700	-7.727	0.099
470.800	-15.531	0.099
470.900	-10.559	0.099
471.000	-23.256	0.099
471.100	-12.930	0.099
471.200	5.008	0.099
471.300	-9.591	0.099
471.400	-17.054	0.099
471.500	-1.249	0.099
471.600	-5.534	0.099
471.700	-1.401	0.099
471.800	-5.053	0.099
471.900	-4.972	0.099
472.000	-20.237	0.099
472.100	-12.227	0.099
472.200	-13.090	0.099
472.300	-4.069	0.099
472.400	-5.991	0.099
472.500	-11.895	0.099
472.600	-19.242	0.099
472.700	-6.444	0.099
472.800	-11.216	0.099
472.900	0.875	0.099
473.000	-17.964	0.099
473.100	-0.258	0.100
473.200	-1.147	0.099
473.300	-12.835	0.099
473.400	-19.766	0.099
473.500	-7.698	0.100
473.600	-15.160	0.099
473.700	-17.254	0.099
473.800	-14.556	0.099
473.900	-4.996	0.099
474.000	-11.781	0.099
474.100	-7.178	0.099
474.200	-15.221	0.100
474.300	10.029	0.099
474.400	-22.916	0.100
474.500	-13.655	0.099
474.600	-18.098	0.100
474.700	-12.677	0.099
474.800	-11.851	0.099
474.900	-1.801	0.099
475.000	-8.780	0.100
475.100	-8.628	0.100
475.200	-16.939	0.099
475.300	-5.389	0.099
475.400	-14.842	0.099
475.500	-8.399	0.099
475.600	-39.611	0.099
475.700	-8.082	0.099
475.800	6.202	0.099
475.900	-11.794	0.099
476.000	-6.282	0.099
476.100	-18.370	0.099
476.200	-10.231	0.099
476.300	1.987	0.099
476.400	-19.683	0.099
476.500	-22.581	0.099
476.600	-8.995	0.099
476.700	-6.207	0.099
476.800	-9.291	0.099
476.900	3.645	0.100
477.000	-9.952	0.099
477.100	-19.515	0.099
477.200	-16.864	0.099
477.300	-12.326	0.099
477.400	-20.558	0.099
477.500	1.706	0.099
477.600	-36.826	0.099
477.700	-2.866	0.099
477.800	-17.100	0.099
477.900	-12.911	0.099
478.000	0.114	0.099
478.100	10.387	0.099
478.200	-34.219	0.099
478.300	-16.630	0.099
478.400	-4.072	0.099
478.500	-21.624	0.099
478.600	-10.466	0.099
478.700	11.561	0.099
478.800	-21.422	0.099
478.900	-31.551	0.099
479.000	-8.391	0.099
479.100	-13.873	0.099
479.200	-18.577	0.099
479.300	-15.583	0.099
479.400	0.182	0.099
479.500	7.552	0.099
479.600	-15.955	0.099
479.700	-5.931	0.099
479.800	-11.391	0.100
479.900	-5.912	0.099
480.000	-11.028	0.099
480.100	-7.124	0.099
480.200	-10.394	0.099
480.300	-8.760	0.099
480.400	-22.062	0.099
480.500	10.913	0.099
480.600	0.062	0.099
480.700	3.416	0.099
480.800	14.539	0.099
480.900	10.348	0.099
481.000	22.672	0.099
481.100	33.753	0.099
481.200	22.241	0.099
481.300	20.895	0.099
481.400	29.689	0.099
481.500	36.102	0.099
481.600	36.366	0.099
481.700	31.285	0.099
481.800	28.325	0.099
481.900	45.596	0.099
482.000	34.505	0.099
482.100	44.161	0.099
482.200	31.983	0.099
482.300	36.576	0.099
482.400	22.901	0.099
482.500	33.128	0.099
482.600	39.553	0.099
482.700	28.063	0.099
482.800	30.852	0.099
482.900	38.310	0.099
483.000	32.392	0.099
483.100	35.275	0.099
483.200	22.919	0.099
483.300	40.550	0.099
483.400	24.347	0.099
483.500	23.299	0.099
483.600	32.528	0.099
483.700	32.971	0.099
483.800	30.256	0.099
483.900	41.385	0.099
484.000	24.534	0.099
484.100	15.160	0.099
484.200	12.457	0.099
484.300	33.689	0.099
484.400	43.832	0.099
484.500	12.780	0.099
484.600	31.025	0.099
484.700	23.165	0.099
484.800	25.722	0.099
484.900	0.317	0.099
485.000	29.177	0.099
485.100	27.808	0.099
485.200	4.229	0.099
485.300	30.005	0.099
485.400	11.774	0.099
485.500	29.491	0.099
485.600	12.688	0.099
485.700	-7.496	0.099
485.800	23.012	0.099
485.900	14.269	0.099
486.000	19.147	0.099
486.100	4.894	0.099
486.200	23.928	0.099
486.300	23.280	0.099
486.400	8.604	0.099
486.500	24.071	0.099
486.600	33.289	0.099
486.700	9.919	0.099
486.800	26.019	0.099
486.900	20.652	0.099
487.000	26.987	0.099
487.100	29.432	0.099
487.200	33.324	0.099
487.300	33.695	0.099
487.400	21.456	0.099
487.500	-3.698	0.099
487.600	13.473	0.099
487.700	38.642	0.099
487.800	33.704	0.099
487.900	36.393	0.099
488.000	17.039	0.099
488.100	26.956	0.099
488.200	34.111	0.099
488.300	32.917	0.099
488.400	37.021	0.099
488.500	32.273	0.099
488.600	29.053	0.099
488.700	20.119	0.099
488.800	28.871	0.099
488.900	18.555	0.099
489.000	33.535	0.099
489.100	24.952	0.099
489.200	31.875	0.099
489.300	21.600	0.099
489.400	27.446	0.099
489.500	21.393	0.099
489.600	36.599	0.099
489.700	35.817	0.099
489.800	19.740	0.099
489.900	32.379	0.099
490.000	35.678	0.099
490.100	25.611	0.099
490.200	34.132	0.099
490.300	59.341	0.099
490.400	38.583	0.099
490.500	33.399	0.099
490.600	33.635	0.099
490.700	28.769	0.099
490.800	35.391	0.099
490.900	40.391	0.099
491.000	37.737	0.099
491.100	31.248	0.099
491.200	39.804	0.099
491.300	30.395	0.099
491.400	38.672	0.099
491.500	33.099	0.099
491.600	38.470	0.099
491.700	23.813	0.099
491.800	54.401	0.099
491.900	13.773	0.099
492.000	38.787	0.099
492.100	15.601	0.099
492.200	24.575	0.099
492.300	41.432	0.099
492.400	27.629	0.099
492.500	54.151	0.099
492.600	44.555	0.099
492.700	31.096	0.099
492.800	39.275	0.099
492.900	30.342	0.099
493.000	41.447	0.099
493.100	44.195	0.099
493.200	40.744	0.099
493.300	39.716	0.099
493.400	46.654	0.099
493.500	52.636	0.099
493.600	39.025	0.099
493.700	34.693	0.099
493.800	55.007	0.099
493.900	24.493	0.099
494.000	49.886	0.099
494.100	45.990	0.099
494.200	34.146	0.099
494.300	74.008	0.099
494.400	63.228	0.099
494.500	34.393	0.099
494.600	45.129	0.099
494.700	61.818	0.099
494.800	43.262	0.099
494.900	35.365	0.099
495.000	49.560	0.099
495.100	45.445	0.099
495.200	37.828	0.099
495.300	53.109	0.099
495.400	44.559	0.099
495.500	44.973	0.099
495.600	45.084	0.099
495.700	43.974	0.099
495.800	50.750	0.099
495.900	53.270	0.099
496.000	38.780	0.099
496.100	50.642	0.099
496.200	30.241	0.099
496.300	54.799	0.099
496.400	41.829	0.099
496.500	56.391	0.099
496.600	32.932	0.099
496.700	49.688	0.099
496.800	47.850	0.099
496.900	29.621	0.099
497.000	30.496	0.099
497.100	32.615	0.099
497.200	48.462	0.099
497.300	52.264	0.099
497.400	24.040	0.099
497.500	50.816	0.099
497.600	45.074	0.099
497.700	38.384	0.099
497.800	45.799	0.099
497.900	49.484	0.099
498.000	40.255	0.099
498.100	45.098	0.099
498.200	22.695	0.099
498.300	55.139	0.099
498.400	26.902	0.099
498.500	42.114	0.099
498.600	58.273	0.099
498.700	58.682	0.099
498.800	45.292	0.099
498.900	43.657	0.099
499.000	27.917	0.099
499.100	41.066	0.099
499.200	37.193	0.099
499.300	45.473	0.099
499.400	61.012	0.099
499.500	21.747	0.099
499.600	43.278	0.099
499.700	45.145	0.099
499.800	30.450	0.099
499.900	53.461	0.099
500.000	46.689	0.099
500.100	33.618	0.099
500.200	44.368	0.099
500.300	46.325	0.099
500.400	49.363	0.099
500.500	52.598	0.099
500.600	39.232	0.099
500.700	38.601	0.099
500.800	48.449	0.099
500.900	32.659	0.099
501.000	40.414	0.099
501.100	36.627	0.099
501.200	58.308	0.099
501.300	26.986	0.099
501.400	46.630	0.099
501.500	44.091	0.099
501.600	22.430	0.099
501.700	41.505	0.099
501.800	21.952	0.099
501.900	33.838	0.099
502.000	50.446	0.099
502.100	45.981	0.099
502.200	34.275	0.099
502.300	38.813	0.099
502.400	25.607	0.099
502.500	29.047	0.099
502.600	41.657	0.099
502.700	50.652	0.099
502.800	37.759	0.099
502.900	17.882	0.099
503.000	54.312	0.099
503.100	26.618	0.099
503.200	29.250	0.099
503.300	32.309	0.099
503.400	32.294	0.099
503.500	44.418	0.099
503.600	45.891	0.099
503.700	21.616	0.099
503.800	32.506	0.099
503.900	29.662	0.099
504.000	40.666	0.099
504.100	39.929	0.099
504.200	56.770	0.099
504.300	11.187	0.099
504.400	30.519	0.099
504.500	34.034	0.099
504.600	42.705	0.099
504.700	35.890	0.099
504.800	47.492	0.099
504.900	39.401	0.099
505.000	23.264	0.099
505.100	45.099	0.099
505.200	53.054	0.099
505.300	36.131	0.099
505.400	26.901	0.099
505.500	44.105	0.099
505.600	45.414	0.099
505.700	19.331	0.099
505.800	33.061	0.099
505.900	36.367	0.099
506.000	32.903	0.099
506.100	42.654	0.099
506.200	30.784	0.099
506.300	39.738	0.099
506.400	25.147	0.099
506.500	41.060	0.099
506.600	34.766	0.099
506.700	37.538	0.099
506.800	29.135	0.099
506.900	46.557	0.099
507.000	41.596	0.099
507.100	44.963	0.099
507.200	41.734	0.099
507.300	48.808	0.099
507.400	31.735	0.099
507.500	25.432	0.099
507.600	50.160	0.099
507.700	44.847	0.099
507.800	36.714	0.099
507.900	28.009	0.099
508.000	24.064	0.099
508.100	37.091	0.099
508.200	46.383	0.099
508.300	32.461	0.099
508.400	48.536	0.099
508.500	26.531	0.099
508.600	32.797	0.099
508.700	24.605	0.099
508.800	32.507	0.099
508.900	41.358	0.099
509.000	46.346	0.099
509.100	38.741	0.099
509.200	36.678	0.099
509.300	38.713	0.099
509.400	26.077	0.099
509.500	31.498	0.099
509.600	29.834	0.099
509.700	45.553	0.099
509.800	52.336	0.099
509.900	21.545	0.099
510.000	36.751	0.099
510.100	25.756	0.099
510.200	52.334	0.099
510.300	51.786	0.099
510.400	40.229	0.099
510.500	37.814	0.099
510.600	28.952	0.099
510.700	29.075	0.099
510.800	34.265	0.099
510.900	42.113	0.099
511.000	21.801	0.099
511.100	35.034	0.099
511.200	24.200	0.099
511.300	41.754	0.099
511.400	55.892	0.099
511.500	23.002	0.099
511.600	25.955	0.099
511.700	31.857	0.099
511.800	41.297	0.099
511.900	43.123	0.099
512.000	40.322	0.099
512.100	29.180	0.099
512.200	45.249	0.099
512.300	37.725	0.099
512.400	32.424	0.099
512.500	38.875	0.099
512.600	43.311	0.099
512.700	35.571	0.099
512.800	38.936	0.099
512.900	42.934	0.099
513.000	34.991	0.099
513.100	12.014	0.099
513.200	46.331	0.099
513.300	32.225	0.099
513.400	35.224	0.099
513.500	39.313	0.099
513.600	39.931	0.099
513.700	26.746	0.099
513.800	23.482	0.099
513.900	42.477	0.099
514.000	33.416	0.099
514.100	48.121	0.099
514.200	13.140	0.099
514.300	29.469	0.099
514.400	17.550	0.099
514.500	43.756	0.099
514.600	27.022	0.099
514.700	59.716	0.099
514.800	35.960	0.099
514.900	23.817	0.099
515.000	45.486	0.099
515.100	41.104	0.099
515.200	13.874	0.099
515.300	36.445	0.099
515.400	40.640	0.099
515.500	38.231	0.099
515.600	41.182	0.099
515.700	24.220	0.099
515.800	30.086	0.099
515.900	42.038	0.099
516.000	40.694	0.099
516.100	39.722	0.099
516.200	50.108	0.099
516.300	16.480	0.099
516.400	47.345	0.099
516.500	28.370	0.099
516.600	24.519	0.099
516.700	40.350	0.099
516.800	48.754	0.099
516.900	34.041	0.099
517.000	32.944	0.099
517.100	28.696	0.099
517.200	29.880	0.099
517.300	49.316	0.099
517.400	31.026	0.099
517.500	35.089	0.099
517.600	23.859	0.099
517.700	24.460	0.099
517.800	47.249	0.099
517.900	26.282	0.099
518.000	41.870	0.099
518.100	33.114	0.099
518.200	32.907	0.099
518.300	47.351	0.099
518.400	28.333	0.099
518.500	31.796	0.099
518.600	7.116	0.099
518.700	48.120	0.099
518.800	16.575	0.099
518.900	43.538	0.099
519.000	31.004	0.099
519.100	29.098	0.099
519.200	43.988	0.099
519.300	43.373	0.099
519.400	30.142	0.099
519.500	34.638	0.099
519.600	30.715	0.099
519.700	22.163	0.099
519.800	12.027	0.099
519.900	31.578	0.099
520.000	37.602	0.099
520.100	39.242	0.099
520.200	37.664	0.099
520.300	18.371	0.099
520.400	38.212	0.099
520.500	28.241	0.099
520.600	30.947	0.099
520.700	27.042	0.099
520.800	32.332	0.099
520.900	31.181	0.099
521.000	37.117	0.099
521.100	34.212	0.099
521.200	27.413	0.099
521.300	34.254	0.099
521.400	45.901	0.099
521.500	33.414	0.099
521.600	49.553	0.099
521.700	42.483	0.099
521.800	34.551	0.099
521.900	32.822	0.099
522.000	39.034	0.099
522.100	31.828	0.099
522.200	16.694	0.099
522.300	16.812	0.099
522.400	14.935	0.099
522.500	46.389	0.099
522.600	47.080	0.099
522.700	27.341	0.099
522.800	49.390	0.099
522.900	27.096	0.099
523.000	32.213	0.099
523.100	45.681	0.099
523.200	31.661	0.099
523.300	21.874	0.099
523.400	42.220	0.099
523.500	38.334	0.099
523.600	42.560	0.099
523.700	34.305	0.099
523.800	27.758	0.099
523.900	19.432	0.099
524.000	38.773	0.099
524.100	29.028	0.099
524.200	45.210	0.099
524.300	17.155	0.099
524.400	41.497	0.099
524.500	32.889	0.099
524.600	45.047	0.099
524.700	35.481	0.099
524.800	50.319	0.099
524.900	41.715	0.099
525.000	21.560	0.099
525.100	12.405	0.099
525.200	47.583	0.099
525.300	20.763	0.099
525.400	34.141	0.099
525.500	22.316	0.099
525.600	43.900	0.099
525.700	50.878	0.099
525.800	51.233	0.099
525.900	23.485	0.099
526.000	25.410	0.099
526.100	26.281	0.099
526.200	33.511	0.099
526.300	11.467	0.099
526.400	46.682	0.099
526.500	47.427	0.099
526.600	34.874	0.099
526.700	39.437	0.099
526.800	20.952	0.099
526.900	33.035	0.099
527.000	42.667	0.099
527.100	40.740	0.099
527.200	54.384	0.099
527.300	20.927	0.099
527.400	35.567	0.099
527.500	28.334	0.099
527.600	46.214	0.099
527.700	28.163	0.099
527.800	36.146	0.099
527.900	21.770	0.099
528.000	27.859	0.099
528.100	32.529	0.099
528.200	37.976	0.099
528.300	40.297	0.099
528.400	27.554	0.099
528.500	19.567	0.099
528.600	40.989	0.099
528.700	49.090	0.099
528.800	30.279	0.099
528.900	30.968	0.099
529.000	31.387	0.099
529.100	30.352	0.099
529.200	35.127	0.099
529.300	34.234	0.099
529.400	20.892	0.099
529.500	36.016	0.099
529.600	14.045	0.099
529.700	47.275	0.099
529.800	25.479	0.099
529.900	26.091	0.099
530.000	35.441	0.099
530.100	22.853	0.099
530.200	36.713	0.099
530.300	32.400	0.099
530.400	46.678	0.099
530.500	29.087	0.099
530.600	29.763	0.099
530.700	31.898	0.099
530.800	42.551	0.099
530.900	34.048	0.099
531.000	23.842	0.099
531.100	18.772	0.099
531.200	24.945	0.099
531.300	20.954	0.099
531.400	22.619	0.099
531.500	57.619	0.099
531.600	36.731	0.099
531.700	27.850	0.099
531.800	40.500	0.099
531.900	17.107	0.099
532.000	45.052	0.099
532.100	32.107	0.099
532.200	40.737	0.099
532.300	48.673	0.099
532.400	20.267	0.099
532.500	24.344	0.099
532.600	40.830	0.099
532.700	19.151	0.099
532.800	22.726	0.099
532.900	32.343	0.099
533.000	28.599	0.099
533.100	44.941	0.099
533.200	30.319	0.099
533.300	33.800	0.099
533.400	24.540	0.099
533.500	33.252	0.099
533.600	20.923	0.099
533.700	58.672	0.099
533.800	36.520	0.099
533.900	44.741	0.099
534.000	35.122	0.099
534.100	33.228	0.099
534.200	13.739	0.099
534.300	30.068	0.099
534.400	21.572	0.099
534.500	23.692	0.099
534.600	41.746	0.099
534.700	46.052	0.099
534.800	29.183	0.099
534.900	46.305	0.099
535.000	22.764	0.099
535.100	36.785	0.099
535.200	38.476	0.099
535.300	38.137	0.099
535.400	37.035	0.099
535.500	24.201	0.099
535.600	34.551	0.099
535.700	12.831	0.099
535.800	45.196	0.099
535.900	40.322	0.099
536.000	31.651	0.099
536.100	56.647	0.099
536.200	17.225	0.099
536.300	29.395	0.099
536.400	29.755	0.099
536.500	23.317	0.099
536.600	27.765	0.099
536.700	34.676	0.099
536.800	17.942	0.099
536.900	34.597	0.099
537.000	37.532	0.099
537.100	27.590	0.099
537.200	34.619	0.099
537.300	33.255	0.099
537.400	27.323	0.099
537.500	25.961	0.099
537.600	35.465	0.099
537.700	47.433	0.099
537.800	20.923	0.099
537.900	20.765	0.099
538.000	35.550	0.099
538.100	36.039	0.099
538.200	43.766	0.099
538.300	27.754	0.099
538.400	26.252	0.099
538.500	42.891	0.099
538.600	32.030	0.099
538.700	21.344	0.099
538.800	35.082	0.099
538.900	23.647	0.099
539.000	54.397	0.099
539.100	42.474	0.099
539.200	38.906	0.099
539.300	40.639	0.099
539.400	39.147	0.099
539.500	28.281	0.099
539.600	23.739	0.099
539.700	22.848	0.099
539.800	34.003	0.099
539.900	43.048	0.099
540.000	37.804	0.099
540.100	25.560	0.099
540.200	17.548	0.099
540.300	32.437	0.099
540.400	26.564	0.099
540.500	23.329	0.099
540.600	19.459	0.099
540.700	24.109	0.099
540.800	-25.082	0.099
540.900	-1.030	0.099
541.000	-2.782	0.099
541.100	7.482	0.099
541.200	4.428	0.099
541.300	-9.825	0.099
541.400	-16.134	0.099
541.500	-18.509	0.099
541.600	-29.784	0.099
541.700	1.515	0.099
541.800	-19.163	0.099
541.900	-23.456	0.099
542.000	-18.665	0.099
542.100	-31.954	0.099
542.200	-33.924	0.099
542.300	-17.173	0.099
542.400	-10.699	0.099
542.500	-33.926	0.099
542.600	-20.222	0.099
542.700	-20.780	0.099
542.800	-23.023	0.099
542.900	-25.674	0.099
543.000	-18.035	0.099
543.100	-28.340	0.099
543.200	-22.410	0.099
543.300	-33.730	0.099
543.400	-22.479	0.099
543.500	-9.447	0.099
543.600	-30.147	0.099
543.700	-18.361	0.099
543.800	-26.017	0.099
543.900	-24.499	0.099
544.000	-22.420	0.099
544.100	-21.478	0.099
544.200	-12.734	0.099
544.300	-19.247	0.099
544.400	-26.918	0.099
544.500	-16.376	0.099
544.600	-22.141	0.099
544.700	-23.173	0.099
544.800	-14.607	0.099
544.900	-23.816	0.099
545.000	-18.802	0.099
545.100	-28.423	0.099
545.200	-24.024	0.099
545.300	-24.192	0.099
545.400	-32.786	0.099
545.500	-22.677	0.099
545.600	-16.671	0.099
545.700	-31.088	0.099
545.800	-22.577	0.099
545.900	-33.640	0.099
546.000	-26.338	0.099
546.100	-16.558	0.099
546.200	-25.548	0.099
546.300	-7.249	0.099
546.400	-33.033	0.099
546.500	-8.544	0.099
546.600	-56.523	0.099
546.700	-18.157	0.099
546.800	-9.054	0.099
546.900	-25.863	0.099
547.000	-14.829	0.099
547.100	-23.422	0.099
547.200	-30.558	0.099
547.300	-4.438	0.099
547.400	-27.515	0.099
547.500	-21.190	0.099
547.600	-18.663	0.099
547.700	-31.474	0.099
547.800	-20.194	0.099
547.900	-19.463	0.099
548.000	-22.977	0.099
548.100	-23.367	0.099
548.200	-13.594	0.099
548.300	-24.858	0.099
548.400	-18.162	0.099
548.500	-30.461	0.099
548.600	-19.919	0.099
548.700	-20.224	0.099
548.800	-17.014	0.099
548.900	-34.843	0.099
549.000	-16.796	0.099
549.100	-27.319	0.099
549.200	-23.032	0.099
549.300	-28.016	0.099
549.400	-13.334	0.099
549.500	-26.998	0.099
549.600	-41.899	0.099
549.700	-11.873	0.099
549.800	-20.970	0.099
549.900	-14.817	0.099
550.000	-0.026	0.099
550.100	-24.328	0.099
550.200	-37.627	0.099
550.300	-2.605	0.099
550.400	-5.211	0.099
550.500	-14.950	0.099
550.600	-21.177	0.099
550.700	-23.537	0.099
550.800	-37.069	0.099
550.900	-18.760	0.099
551.000	-24.925	0.099
551.100	-19.406	0.099
551.200	-19.205	0.099
551.300	-30.638	0.099
551.400	-20.153	0.099
551.500	-31.884	0.099
551.600	-13.108	0.099
551.700	-17.660	0.099
551.800	-16.953	0.099
551.900	-27.143	0.099
552.000	-20.639	0.099
552.100	-15.942	0.099
552.200	-27.514	0.099
552.300	-13.739	0.099
552.400	-18.796	0.099
552.500	-22.223	0.099
552.600	-37.745	0.099
552.700	-31.568	0.099
552.800	-11.901	0.099
552.900	-13.969	0.099
553.000	-29.634	0.099
553.100	-13.315	0.099
553.200	-23.163	0.099
553.300	-16.767	0.099
553.400	-21.893	0.099
553.500	-15.755	0.099
553.600	-23.091	0.099
553.700	-38.166	0.099
553.800	-9.778	0.099
553.900	-10.002	0.099
554.000	-13.595	0.099
554.100	-16.691	0.099
554.200	-42.922	0.099
554.300	-24.254	0.099
554.400	-16.317	0.099
554.500	-30.595	0.099
554.600	-18.710	0.099
554.700	-25.048	0.099
554.800	-5.034	0.099
554.900	-12.368	0.099
555.000	-21.426	0.099
555.100	-29.740	0.099
555.200	-16.411	0.099
555.300	-11.982	0.099
555.400	-28.200	0.099
555.500	-18.844	0.099
555.600	-23.544	0.099
555.700	-23.639	0.099
555.800	-31.426	0.099
555.900	-18.613	0.099
556.000	-34.147	0.099
556.100	-9.746	0.099
556.200	-8.321	0.099
556.300	-25.412	0.099
556.400	-36.147	0.099
556.500	-17.317	0.099
556.600	-17.740	0.099
556.700	-7.328	0.099
556.800	-22.636	0.099
556.900	-28.017	0.099
557.000	-14.378	0.099
557.100	-29.429	0.099
557.200	-21.325	0.099
557.300	-10.379	0.099
557.400	-12.474	0.099
557.500	-22.863	0.099
557.600	-38.609	0.099
557.700	-26.071	0.099
557.800	-29.291	0.099
557.900	-7.338	0.099
558.000	-24.268	0.099
558.100	-16.924	0.099
558.200	-19.122	0.099
558.300	-13.590	0.099
558.400	-40.379	0.099
558.500	-32.004	0.099
558.600	-22.378	0.099
558.700	-14.820	0.099
558.800	-27.511	0.099
558.900	-23.511	0.099
559.000	-18.396	0.099
559.100	-7.695	0.099
559.200	-19.023	0.099
559.300	-28.542	0.099
559.400	-30.914	0.099
559.500	-9.012	0.099
559.600	-34.365	0.099
559.700	-23.843	0.099
559.800	-24.416	0.099
559.900	-32.046	0.099
560.000	-22.079	0.099
560.100	-16.478	0.099
560.200	-8.782	0.099
560.300	-25.610	0.099
560.400	-28.249	0.099
560.500	-22.505	0.099
560.600	-31.594	0.099
560.700	-23.450	0.099
560.800	-19.342	0.099
560.900	-12.280	0.099
561.000	-27.103	0.099
561.100	-22.723	0.099
561.200	-31.054	0.099
561.300	-18.172	0.099
561.400	-18.281	0.099
561.500	-22.202	0.099
561.600	-14.252	0.099
561.700	-44.756	0.099
561.800	-11.492	0.099
561.900	-24.860	0.099
562.000	-13.227	0.099
562.100	-20.807	0.099
562.200	-32.595	0.099
562.300	-19.373	0.099
562.400	-13.779	0.099
562.500	-30.166	0.099
562.600	-18.733	0.099
562.700	-26.713	0.099
562.800	-25.955	0.099
562.900	-28.513	0.099
563.000	-9.864	0.099
563.100	-22.314	0.099
563.200	-16.425	0.099
563.300	-20.069	0.099
563.400	-17.481	0.099
563.500	-22.962	0.099
563.600	-26.798	0.099
563.700	-24.353	0.099
563.800	-16.273	0.099
563.900	-41.980	0.099
564.000	-10.820	0.099
564.100	-13.341	0.099
564.200	-19.965	0.099
564.300	-11.335	0.099
564.400	-30.006	0.099
564.500	-21.964	0.099
564.600	-26.455	0.099
564.700	-29.825	0.099
564.800	-25.044	0.099
564.900	-19.154	0.099
565.000	-26.519	0.099
565.100	-29.821	0.099
565.200	-15.597	0.099
565.300	-25.638	0.099
565.400	-35.502	0.099
565.500	2.925	0.099
565.600	-24.648	0.099
565.700	-35.967	0.099
565.800	-21.955	0.099
565.900	-12.735	0.099
566.000	-28.337	0.099
566.100	-30.763	0.099
566.200	-26.938	0.099
566.300	-23.638	0.099
566.400	-20.180	0.099
566.500	-13.758	0.099
566.600	-18.754	0.099
566.700	-28.354	0.099
566.800	-8.830	0.099
566.900	-8.458	0.099
567.000	-22.933	0.099
567.100	-10.392	0.099
567.200	-44.014	0.099
567.300	-23.407	0.099
567.400	-21.922	0.099
567.500	-48.266	0.099
567.600	-16.615	0.099
567.700	-19.455	0.099
567.800	-22.165	0.099
567.900	-22.921	0.099
568.000	-17.997	0.099
568.100	-41.105	0.099
568.200	-19.258	0.099
568.300	-23.305	0.099
568.400	-24.546	0.099
568.500	-25.064	0.099
568.600	-8.844	0.099
568.700	-22.168	0.099
568.800	-48.107	0.099
568.900	-12.536	0.099
569.000	-5.634	0.099
569.100	-31.014	0.099
569.200	-21.292	0.099
569.300	-8.274	0.099
569.400	-28.091	0.099
569.500	-30.568	0.099
569.600	-18.463	0.099
569.700	-26.693	0.099
569.800	-25.822	0.099
569.900	-18.067	0.099
570.000	-55.156	0.099
570.100	-11.504	0.099
570.200	-25.672	0.099
570.300	-23.169	0.099
570.400	-21.404	0.099
570.500	-17.378	0.099
570.600	-15.091	0.099
570.700	-38.304	0.099
570.800	-29.910	0.099
570.900	-14.257	0.099
571.000	-31.570	0.099
571.100	-14.020	0.099
571.200	-23.937	0.099
571.300	-36.635	0.099
571.400	-18.894	0.099
571.500	-25.606	0.099
571.600	-22.211	0.099
571.700	-48.735	0.099
571.800	-21.835	0.099
571.900	-21.734	0.099
572.000	-21.924	0.099
572.100	-38.027	0.099
572.200	-22.108	0.099
572.300	-25.498	0.099
572.400	-13.088	0.099
572.500	-13.499	0.099
572.600	-34.582	0.100
572.700	-13.520	0.099
572.800	-31.529	0.099
572.900	-13.505	0.099
573.000	-18.132	0.099
573.100	-20.913	0.100
573.200	-28.060	0.099
573.300	-30.860	0.100
573.400	4.977	0.100
573.500	-24.484	0.100
573.600	-20.270	0.100
573.700	-14.120	0.100
573.800	-24.887	0.100
573.900	-14.484	0.100
574.000	-17.002	0.100
574.100	-29.693	0.100
574.200	-10.606	0.100
574.300	-24.639	0.100
574.400	-21.024	0.100
574.500	-32.736	0.100
574.600	-21.851	0.100
574.700	-28.453	0.100
574.800	-15.770	0.100
574.900	-32.279	0.100
575.000	-17.520	0.100
575.100	-32.459	0.100
575.200	-19.627	0.100
575.300	-19.042	0.100
575.400	-34.099	0.100
575.500	-26.781	0.100
575.600	-9.575	0.100
575.700	-17.852	0.100
575.800	-25.779	0.100
575.900	-21.542	0.100
576.000	-25.189	0.100
576.100	-21.096	0.100
576.200	-6.214	0.100
576.300	-4.352	0.100
576.400	-18.728	0.100
576.500	-31.597	0.100
576.600	-36.838	0.100
576.700	-25.790	0.100
576.800	-20.589	0.100
576.900	-16.475	0.100
577.000	-13.349	0.100
577.100	-30.975	0.100
577.200	-33.148	0.100
577.300	-21.122	0.100
577.400	-5.040	0.100
577.500	-11.822	0.100
577.600	-20.693	0.100
577.700	-13.712	0.100
577.800	-16.917	0.100
577.900	-36.257	0.100
578.000	-24.830	0.100
578.100	-15.978	0.100
578.200	-10.487	0.100
578.300	-26.817	0.100
578.400	-22.297	0.100
578.500	-21.370	0.100
578.600	-6.056	0.100
578.700	-27.950	0.100
578.800	-17.916	0.100
578.900	-20.507	0.100
579.000	-26.524	0.100
579.100	-4.783	0.100
579.200	-11.852	0.100
579.300	-19.869	0.100
579.400	-25.577	0.100
579.500	-29.583	0.100
579.600	-9.784	0.100
579.700	-26.271	0.100
579.800	-16.466	0.100
579.900	-21.089	0.100
580.000	-28.625	0.100
580.100	-18.285	0.100
580.200	-16.453	0.100
580.300	-29.793	0.100
580.400	-14.325	0.100
580.500	-30.417	0.100
580.600	-31.863	0.100
580.700	-17.508	0.100
580.800	-20.127	0.100
580.900	-15.157	0.100
581.000	-1.306	0.100
581.100	-16.058	0.100
581.200	-45.475	0.100
581.300	-37.353	0.100
581.400	-19.327	0.100
581.500	-23.012	0.100
581.600	-18.564	0.100
581.700	-30.447	0.100
581.800	-19.680	0.100
581.900	-9.815	0.100
582.000	-27.659	0.100
582.100	-45.316	0.100
582.200	-3.841	0.100
582.300	-13.259	0.100
582.400	-22.360	0.100
582.500	-2.354	0.100
582.600	-25.880	0.100
582.700	-18.440	0.100
582.800	-38.609	0.100
582.900	0.373	0.100
583.000	-24.426	0.100
583.100	-26.419	0.100
583.200	-22.135	0.100
583.300	-11.870	0.100
583.400	-13.032	0.100
583.500	-24.427	0.100
583.600	-11.312	0.100
583.700	-4.547	0.100
583.800	-7.175	0.100
583.900	-27.487	0.100
584.000	-16.211	0.100
584.100	-21.513	0.100
584.200	-16.671	0.100
584.300	-24.213	0.100
584.400	-24.751	0.100
584.500	-1.458	0.100
584.600	-30.542	0.100
584.700	-5.468	0.100
584.800	-20.348	0.100
584.900	-17.110	0.100
585.000	-7.048	0.100
585.100	-8.810	0.100
585.200	-24.568	0.100
585.300	-42.916	0.100
585.400	1.967	0.100
585.500	-22.728	0.100
585.600	-15.275	0.100
585.700	-26.899	0.100
585.800	-3.469	0.100
585.900	-33.597	0.100
586.000	-18.509	0.100
586.100	-7.464	0.100
586.200	-0.708	0.100
586.300	-9.627	0.100
586.400	-26.830	0.100
586.500	-2.673	0.100
586.600	-27.398	0.100
586.700	-29.456	0.100
586.800	-19.889	0.100
586.900	-13.268	0.100
587.000	-12.661	0.100
587.100	-18.720	0.100
587.200	-4.947	0.100
587.300	-17.392	0.100
587.400	-24.350	0.100
587.500	-23.917	0.100
587.600	-24.230	0.100
587.700	-19.953	0.100
587.800	-14.075	0.100
587.900	-31.518	0.100
588.000	-3.682	0.100
588.100	-7.407	0.100
588.200	-12.572	0.100
588.300	-16.406	0.100
588.400	-29.752	0.100
588.500	-19.639	0.100
588.600	-14.994	0.100
588.700	-3.006	0.100
588.800	-29.736	0.100
588.900	-30.461	0.100
589.000	-16.884	0.100
589.100	-15.677	0.100
589.200	-23.231	0.100
589.300	-14.445	0.100
589.400	-5.466	0.100
589.500	3.485	0.100
589.600	-14.738	0.100
589.700	-23.201	0.100
589.800	-4.359	0.100
589.900	-15.976	0.100
590.000	-26.071	0.100
590.100	-15.333	0.100
590.200	-34.255	0.100
590.300	-6.821	0.100
590.400	-3.128	0.100
590.500	2.392	0.100
590.600	-20.247	0.100
590.700	-14.660	0.100
590.800	-30.825	0.100
590.900	-14.071	0.100
591.000	-4.945	0.100
591.100	-1.338	0.100
591.200	-9.386	0.100
591.300	-12.335	0.100
591.400	11.093	0.100
591.500	-26.346	0.100
591.600	-15.423	0.100
591.700	-10.015	0.100
591.800	-8.632	0.100
591.900	-18.894	0.100
592.000	-22.146	0.100
592.100	-35.405	0.100
592.200	-6.155	0.100
592.300	-11.952	0.100
592.400	-16.066	0.100
592.500	-31.767	0.100
592.600	-11.679	0.100
592.700	-17.161	0.100
592.800	-4.970	0.100
592.900	-14.988	0.100
593.000	-37.341	0.100
593.100	-3.304	0.100
593.200	-14.392	0.100
593.300	-5.009	0.100
593.400	-8.769	0.100
593.500	-1.386	0.100
593.600	-21.688	0.100
593.700	-11.868	0.100
593.800	-25.938	0.100
593.900	-26.520	0.100
594.000	-8.958	0.099
594.100	-20.061	0.099
594.200	-14.608	0.099
594.300	-15.147	0.099
594.400	-12.690	0.099
594.500	-23.190	0.099
594.600	-14.891	0.099
594.700	-49.667	0.099
594.800	-27.371	0.099
594.900	-34.802	0.099
595.000	-3.188	0.099
595.100	-18.659	0.099
595.200	-22.232	0.099
595.300	-22.673	0.099
595.400	-0.030	0.099
595.500	-3.284	0.099
595.600	-18.581	0.099
595.700	-23.573	0.099
595.800	-10.911	0.099
595.900	-25.077	0.099
596.000	-13.228	0.099
596.100	-18.801	0.099
596.200	4.389	0.099
596.300	-21.250	0.099
596.400	-1.391	0.099
596.500	-19.609	0.099
596.600	-5.714	0.099
596.700	-11.809	0.099
596.800	-12.053	0.099
596.900	-14.495	0.099
597.000	-12.272	0.099
597.100	-16.798	0.099
597.200	-2.522	0.099
597.300	-15.861	0.099
597.400	-14.978	0.099
597.500	-30.820	0.099
597.600	-6.490	0.099
597.700	-0.380	0.099
597.800	-6.630	0.099
597.900	-22.305	0.099
598.000	-21.522	0.099
598.100	-14.569	0.100
598.200	-6.616	0.099
598.300	-27.333	0.099
598.400	-4.709	0.099
598.500	-23.943	0.099
598.600	-7.619	0.099
598.700	-17.627	0.099
598.800	-31.378	0.099
598.900	-6.317	0.099
599.000	0.275	0.099
599.100	-34.697	0.099
599.200	10.268	0.099
599.300	-7.102	0.099
599.400	-18.202	0.099
599.500	-5.138	0.099
599.600	-12.972	0.099
599.700	-19.355	0.099
599.800	-22.852	0.099
599.900	-15.914	0.099
600.000	-11.580	0.099
600.100	-11.967	0.099
600.200	-10.337	0.099
600.300	1.618	0.100
600.400	-5.065	0.099
600.500	-30.927	0.099
600.600	-3.442	0.099
600.700	-20.579	0.099
600.800	-23.689	0.099
600.900	-11.404	0.099
601.000	-19.151	0.099
601.100	-15.597	0.099
601.200	-26.322	0.099
601.300	-18.603	0.099
601.400	-12.137	0.099
601.500	-20.132	0.099
601.600	-11.451	0.099
601.700	-19.490	0.099
601.800	-20.414	0.099
601.900	-9.864	0.100
602.000	-18.647	0.099
602.100	-16.403	0.099
602.200	-10.977	0.099
602.300	-18.981	0.099
602.400	-12.911	0.099
602.500	0.253	0.099
602.600	-21.724	0.099
602.700	-16.260	0.099
602.800	-17.592	0.099
602.900	-12.555	0.099
603.000	-9.597	0.099
603.100	-25.495	0.099
603.200	4.727	0.100
603.300	-13.626	0.099
603.400	-6.762	0.099
603.500	-7.397	0.099
603.600	-9.632	0.099
603.700	-7.781	0.099
603.800	-28.485	0.099
603.900	-3.138	0.099
604.000	-12.917	0.099
604.100	-2.154	0.099
604.200	-23.793	0.099
604.300	-33.814	0.099
604.400	-4.501	0.099
604.500	-7.159	0.099
604.600	-0.995	0.099
604.700	-18.177	0.099
604.800	-20.499	0.099
604.900	-28.073	0.099
605.000	-10.413	0.099
605.100	-8.091	0.099
605.200	-15.391	0.099
605.300	-11.285	0.099
605.400	-0.388	0.099
605.500	-13.457	0.099
605.600	-18.664	0.099
605.700	-18.801	0.099
605.800	-14.005	0.099
605.900	-16.894	0.099
606.000	-7.952	0.099
606.100	-3.484	0.099
606.200	6.292	0.099
606.300	-20.133	0.099
606.400	-25.997	0.099
606.500	-1.078	0.100
606.600	2.147	0.099
606.700	-23.793	0.099
606.800	-12.703	0.099
606.900	-15.947	0.099
607.000	-1.675	0.099
607.100	-13.516	0.099
607.200	-8.397	0.099
607.300	-17.346	0.100
607.400	-35.270	0.099
607.500	-21.643	0.100
607.600	-2.170	0.099
607.700	-33.573	0.099
607.800	-13.976	0.099
607.900	-36.417	0.099
608.000	-5.830	0.100
608.100	14.449	0.099
608.200	-20.577	0.099
608.300	-32.825	0.099
608.400	2.921	0.099
608.500	-29.162	0.100
608.600	3.425	0.099
608.700	-17.227	0.099
608.800	-21.434	0.099
608.900	-26.659	0.099
609.000	0.856	0.099
609.100	-0.101	0.099
609.200	-2.446	0.099
609.300	-13.308	0.099
609.400	-7.894	0.099
609.500	-24.227	0.099
609.600	-1.038	0.099
609.700	-31.337	0.099
609.800	-2.061	0.100
609.900	-5.602	0.099
610.000	-23.305	0.099
610.100	-17.622	0.099
610.200	-9.982	0.100
610.300	-21.563	0.099
610.400	-3.167	0.100
610.500	-3.806	0.099
610.600	-19.690	0.099
610.700	-13.778	0.099
610.800	1.350	0.099
610.900	-11.369	0.099
611.000	-12.578	0.099
611.100	-0.528	0.100
611.200	-6.493	0.099
611.300	-12.814	0.100
611.400	-36.980	0.099
611.500	-9.096	0.099
611.600	-19.198	0.099
611.700	-7.621	0.099
611.800	-4.281	0.099
611.900	-21.385	0.099
612.000	-0.090	0.099
612.100	-24.817	0.099
612.200	-4.508	0.099
612.300	-33.141	0.100
612.400	-2.428	0.100
612.500	-22.542	0.100
612.600	-20.991	0.099
612.700	-0.772	0.100
612.800	-17.408	0.100
612.900	-27.088	0.099
613.000	-1.795	0.099
613.100	-2.501	0.100
613.200	-18.417	0.099
613.300	2.781	0.099
613.400	-23.200	0.099
613.500	-3.895	0.099
613.600	-16.777	0.099
613.700	-14.934	0.100
613.800	-8.295	0.099
613.900	4.212	0.099
614.000	-24.733	0.099
614.100	-8.510	0.099
614.200	-8.045	0.100
614.300	-11.307	0.100
614.400	-5.336	0.100
614.500	-16.365	0.100
614.600	-9.432	0.099
614.700	-10.779	0.099
614.800	-12.305	0.099
614.900	-11.164	0.100
615.000	-17.711	0.099
615.100	-13.890	0.100
615.200	-0.754	0.099
615.300	-16.079	0.099
615.400	-11.053	0.100
615.500	-2.052	0.099
615.600	-25.583	0.099
615.700	-12.531	0.099
615.800	-14.586	0.099
615.900	-19.389	0.099
616.000	-8.089	0.100
616.100	-1.568	0.099
616.200	-5.654	0.100
616.300	-11.376	0.099
616.400	-12.417	0.099
616.500	-13.807	0.100
616.600	-26.795	0.099
616.700	2.655	0.099
616.800	-1.385	0.100
616.900	-20.604	0.099
617.000	-0.773	0.099
617.100	-1.857	0.100
617.200	3.280	0.099
617.300	-16.661	0.100
617.400	-18.356	0.099
617.500	-2.431	0.099
617.600	-19.319	0.099
617.700	-11.228	0.099
617.800	-21.556	0.099
617.900	-4.009	0.099
618.000	-12.266	0.100
618.100	-4.244	0.099
618.200	-13.358	0.099
618.300	-19.626	0.099
618.400	-13.548	0.099
618.500	-33.066	0.100
618.600	-7.316	0.099
618.700	-6.930	0.099
618.800	-19.498	0.099
618.900	-10.599	0.099
619.000	-2.311	0.099
619.100	5.057	0.099
619.200	-21.920	0.099
619.300	-23.413	0.099
619.400	-17.707	0.099
619.500	-5.812	0.099
619.600	-1.612	0.099
619.700	-15.022	0.099
619.800	-7.308	0.100
619.900	-23.016	0.099
620.000	-15.446	0.100
620.100	-17.132	0.099
620.200	-16.653	0.099
620.300	3.411	0.099
620.400	-4.175	0.099
620.500	-7.472	0.100
620.600	-14.589	0.099
620.700	-10.021	0.100
620.800	-25.544	0.099
620.900	-19.348	0.099
621.000	5.557	0.100
621.100	5.586	0.099
621.200	0.622	0.099
621.300	-10.663	0.099
621.400	-13.231	0.099
621.500	-16.250	0.099
621.600	-8.505	0.099
621.700	-8.154	0.099
621.800	-34.855	0.099
621.900	-9.290	0.099
622.000	-6.517	0.099
622.100	-9.928	0.099
622.200	2.667	0.099
622.300	-28.422	0.099
622.400	-8.756	0.099
622.500	-36.981	0.099
622.600	-19.052	0.099
622.700	-4.577	0.099
622.800	-10.302	0.099
622.900	-26.892	0.100
623.000	-10.405	0.099
623.100	-4.348	0.100
623.200	-3.478	0.099
623.300	-7.114	0.099
623.400	-6.059	0.099
623.500	-1.322	0.099
623.600	-11.395	0.100
623.700	9.693	0.099
623.800	-27.021	0.099
623.900	-17.998	0.099
624.000	-11.038	0.099
624.100	8.696	0.099
624.200	-6.484	0.099
624.300	-19.321	0.099
624.400	-6.999	0.099
624.500	-9.833	0.099
624.600	-25.665	0.099
624.700	7.426	0.099
624.800	-18.889	0.099
624.900	-11.416	0.099
625.000	-31.614	0.099
625.100	-14.909	0.099
625.200	-7.018	0.100
625.300	-22.108	0.099
625.400	-6.362	0.099
625.500	-3.429	0.099
625.600	2.288	0.099
625.700	-4.484	0.100
625.800	-25.348	0.099
625.900	-4.888	0.099
626.000	2.761	0.099
626.100	-10.347	0.099
626.200	-11.631	0.099
626.300	-32.921	0.099
626.400	-16.333	0.099
626.500	-20.565	0.099
626.600	-5.635	0.099
626.700	-14.083	0.099
626.800	-2.700	0.099
626.900	-34.485	0.100
627.000	-3.215	0.099
627.100	-22.647	0.099
627.200	-18.140	0.099
627.300	11.107	0.099
627.400	-22.292	0.099
627.500	-10.861	0.099
627.600	-19.233	0.099
627.700	1.954	0.099
627.800	-8.149	0.100
627.900	-5.808	0.099
628.000	5.039	0.099
628.100	-37.124	0.099
628.200	4.059	0.099
628.300	-11.232	0.099
628.400	-8.313	0.100
628.500	-14.707	0.099
628.600	-6.360	0.099
628.700	-4.062	0.099
628.800	1.073	0.100
628.900	-24.323	0.099
629.000	-25.899	0.100
629.100	-1.414	0.100
629.200	3.379	0.099
629.300	-6.439	0.099
629.400	-7.047	0.099
629.500	-12.229	0.099
629.600	-5.603	0.099
629.700	-18.610	0.099
629.800	1.324	0.099
629.900	-9.192	0.099
630.000	-12.141	0.099
630.100	-11.086	0.099
630.200	-20.806	0.099
630.300	-5.776	0.100
630.400	-0.612	0.100
630.500	-5.710	0.099
630.600	-12.276	0.099
630.700	5.555	0.099
630.800	14.164	0.099
630.900	20.269	0.099
631.000	15.902	0.099
631.100	16.315	0.100
631.200	34.859	0.099
631.300	25.649	0.099
631.400	33.356	0.099
631.500	28.018	0.099
631.600	31.125	0.099
631.700	42.889	0.099
631.800	48.931	0.099
631.900	59.632	0.099
632.000	41.678	0.099
632.100	39.914	0.099
632.200	61.075	0.099
632.300	38.870	0.099
632.400	37.703	0.100
632.500	26.337	0.099
632.600	39.169	0.099
632.700	42.844	0.100
632.800	42.652	0.099
632.900	28.779	0.099
633.000	37.740	0.099
633.100	40.777	0.099
633.200	36.080	0.099
633.300	41.009	0.099
633.400	47.394	0.099
633.500	20.848	0.099
633.600	36.775	0.100
633.700	28.918	0.099
633.800	11.067	0.099
633.900	42.308	0.100
634.000	23.657	0.099
634.100	32.731	0.099
634.200	15.032	0.099
634.300	27.502	0.099
634.400	28.879	0.099
634.500	16.788	0.099
634.600	21.361	0.099
634.700	36.408	0.099
634.800	12.689	0.099
634.900	15.946	0.099
635.000	3.536	0.099
635.100	12.335	0.099
635.200	43.258	0.099
635.300	-1.758	0.099
635.400	15.807	0.099
635.500	31.891	0.099
635.600	41.500	0.099
635.700	4.599	0.099
635.800	37.955	0.099
635.900	35.841	0.099
636.000	2.217	0.100
636.100	22.326	0.100
636.200	8.735	0.099
636.300	21.281	0.100
636.400	22.185	0.099
636.500	7.975	0.099
636.600	14.138	0.099
636.700	22.463	0.100
636.800	23.527	0.099
636.900	32.071	0.100
637.000	23.859	0.099
637.100	23.763	0.099
637.200	18.659	0.099
637.300	14.001	0.099
637.400	36.702	0.100
637.500	13.137	0.100
637.600	8.174	0.099
637.700	21.619	0.100
637.800	36.017	0.100
637.900	14.569	0.099
638.000	-3.205	0.099
638.100	26.720	0.099
638.200	41.573	0.100
638.300	25.960	0.100
638.400	20.226	0.099
638.500	27.176	0.099
638.600	35.742	0.099
638.700	21.784	0.099
638.800	22.436	0.099
638.900	5.650	0.099
639.000	30.450	0.099
639.100	20.748	0.099
639.200	20.569	0.099
639.300	28.200	0.099
639.400	39.263	0.099
639.500	21.826	0.099
639.600	31.651	0.100
639.700	29.238	0.099
639.800	22.923	0.099
639.900	35.317	0.100
640.000	31.245	0.099
640.100	43.121	0.099
640.200	40.342	0.099
640.300	0.455	0.099
640.400	27.579	0.099
640.500	34.807	0.099
640.600	31.190	0.099
640.700	41.951	0.100
640.800	32.025	0.099
640.900	32.611	0.099
641.000	29.008	0.099
641.100	36.727	0.099
641.200	29.359	0.099
641.300	21.991	0.100
641.400	18.421	0.099
641.500	39.240	0.099
641.600	45.037	0.099
641.700	41.655	0.099
641.800	29.532	0.099
641.900	55.148	0.099
642.000	24.241	0.099
642.100	34.998	0.099
642.200	30.290	0.099
642.300	36.142	0.099
642.400	37.872	0.099
642.500	39.723	0.099
642.600	39.455	0.099
642.700	29.654	0.099
642.800	35.476	0.099
642.900	47.066	0.099
643.000	29.304	0.099
643.100	29.529	0.099
643.200	36.098	0.099
643.300	49.271	0.099
643.400	59.457	0.099
643.500	34.084	0.099
643.600	38.891	0.099
643.700	31.379	0.100
643.800	56.582	0.099
643.900	45.424	0.099
644.000	48.815	0.099
644.100	40.821	0.099
644.200	50.543	0.099
644.300	35.742	0.099
644.400	36.970	0.099
644.500	44.770	0.099
644.600	49.034	0.099
644.700	45.241	0.099
644.800	46.909	0.099
644.900	46.464	0.099
645.000	38.781	0.100
645.100	38.766	0.099
645.200	35.588	0.099
645.300	47.115	0.099
645.400	41.669	0.100
645.500	44.944	0.099
645.600	56.274	0.099
645.700	35.082	0.099
645.800	43.475	0.099
645.900	63.139	0.099
646.000	46.443	0.099
646.100	52.511	0.099
646.200	53.748	0.099
646.300	39.361	0.099
646.400	41.559	0.099
646.500	43.889	0.099
646.600	60.743	0.099
646.700	41.214	0.100
646.800	44.621	0.099
646.900	42.581	0.099
647.000	63.767	0.099
647.100	24.847	0.099
647.200	53.728	0.099
647.300	39.101	0.099
647.400	36.072	0.099
647.500	45.847	0.099
647.600	65.552	0.100
647.700	54.591	0.099
647.800	25.713	0.099
647.900	55.591	0.099
648.000	54.631	0.099
648.100	47.900	0.099
648.200	44.152	0.099
648.300	37.533	0.099
648.400	40.533	0.099
648.500	45.823	0.099
648.600	40.153	0.100
648.700	37.613	0.099
648.800	32.389	0.099
648.900	57.029	0.099
649.000	47.891	0.099
649.100	38.828	0.099
649.200	51.676	0.099
649.300	67.934	0.100
649.400	35.896	0.099
649.500	50.633	0.099
649.600	52.694	0.099
649.700	44.828	0.099
649.800	37.455	0.099
649.900	27.206	0.099
650.000	62.315	0.099
650.100	41.037	0.099
650.200	45.693	0.099
650.300	41.266	0.099
650.400	17.541	0.099
650.500	58.673	0.099
650.600	42.409	0.099
650.700	50.483	0.099
650.800	24.386	0.099
650.900	41.115	0.099
651.000	43.627	0.100
651.100	40.136	0.099
651.200	31.290	0.099
651.300	46.599	0.099
651.400	19.348	0.099
651.500	23.208	0.099
651.600	58.358	0.099
651.700	28.988	0.100
651.800	43.501	0.099
651.900	53.502	0.099
652.000	50.224	0.099
652.100	30.461	0.099
652.200	42.330	0.099
652.300	47.871	0.099
652.400	44.028	0.099
652.500	58.997	0.100
652.600	26.275	0.100
652.700	30.940	0.100
652.800	36.062	0.100
652.900	32.012	0.099
653.000	72.488	0.099
653.100	42.360	0.099
653.200	43.842	0.099
653.300	45.422	0.100
653.400	32.786	0.100
653.500	34.661	0.100
653.600	28.022	0.099
653.700	39.284	0.099
653.800	40.844	0.100
653.900	45.539	0.100
654.000	31.665	0.099
654.100	32.890	0.099
654.200	27.338	0.099
654.300	41.143	0.099
654.400	35.081	0.099
654.500	29.789	0.099
654.600	31.207	0.099
654.700	36.836	0.100
654.800	36.231	0.100
654.900	38.031	0.100
655.000	36.268	0.099
655.100	27.197	0.099
655.200	24.186	0.099
655.300	38.737	0.099
655.400	43.505	0.099
655.500	30.234	0.099
655.600	53.406	0.100
655.700	30.165	0.099
655.800	45.264	0.099
655.900	30.924	0.100
656.000	35.646	0.100
656.100	33.424	0.099
656.200	41.333	0.099
656.300	22.286	0.099
656.400	31.562	0.099
656.500	50.988	0.100
656.600	14.129	0.099
656.700	51.847	0.100
656.800	43.458	0.099
656.900	36.199	0.100
657.000	39.509	0.099
657.100	41.510	0.100
657.200	26.561	0.099
657.300	40.494	0.100
657.400	53.553	0.100
657.500	60.300	0.099
657.600	25.598	0.100
657.700	46.766	0.099
657.800	31.873	0.099
657.900	34.560	0.099
658.000	30.511	0.099
658.100	34.082	0.100
658.200	53.479	0.100
658.300	20.558	0.099
658.400	30.714	0.099
658.500	41.484	0.099
658.600	30.234	0.099
658.700	31.171	0.100
658.800	14.552	0.100
658.900	42.628	0.099
659.000	39.324	0.099
659.100	34.978	0.099
659.200	37.994	0.099
659.300	35.998	0.099
659.400	32.471	0.099
659.500	29.517	0.099
659.600	34.357	0.099
659.700	38.661	0.099
659.800	37.975	0.100
659.900	28.666	0.100
660.000	14.146	0.099
660.100	18.722	0.099
660.200	37.314	0.100
660.300	63.503	0.100
660.400	22.973	0.099
660.500	45.728	0.099
660.600	26.761	0.099
660.700	55.714	0.099
660.800	23.858	0.099
660.900	36.457	0.099
661.000	28.282	0.100
661.100	32.027	0.099
661.200	35.380	0.099
661.300	28.612	0.099
661.400	37.688	0.099
661.500	38.328	0.099
661.600	26.751	0.099
661.700	39.356	0.099
661.800	25.472	0.099
661.900	41.224	0.099
662.000	31.223	0.099
662.100	31.588	0.099
662.200	60.983	0.099
662.300	38.022	0.099
662.400	28.321	0.100
662.500	44.593	0.099
662.600	13.282	0.099
662.700	45.178	0.099
662.800	43.959	0.100
662.900	24.167	0.099
663.000	27.397	0.100
663.100	41.708	0.099
663.200	43.041	0.099
663.300	38.081	0.099
663.400	37.035	0.100
663.500	43.247	0.099
663.600	37.211	0.099
663.700	42.758	0.099
663.800	39.678	0.099
663.900	28.349	0.100
664.000	37.313	0.099
664.100	35.796	0.099
664.200	46.643	0.100
664.300	30.398	0.099
664.400	34.574	0.099
664.500	43.512	0.100
664.600	38.220	0.100
664.700	57.407	0.100
664.800	25.444	0.100
664.900	27.889	0.099
665.000	54.063	0.099
665.100	35.466	0.099
665.200	21.128	0.099
665.300	39.757	0.099
665.400	34.577	0.099
665.500	40.844	0.099
665.600	15.194	0.099
665.700	21.695	0.099
665.800	31.715	0.099
665.900	34.667	0.099
666.000	26.900	0.100
666.100	44.684	0.099
666.200	27.955	0.099
666.300	24.496	0.099
666.400	36.339	0.099
666.500	35.516	0.099
666.600	37.685	0.099
666.700	28.471	0.099
666.800	60.802	0.099
666.900	28.766	0.099
667.000	43.222	0.099
667.100	19.925	0.100
667.200	44.744	0.099
667.300	21.561	0.099
667.400	57.066	0.100
667.500	32.839	0.099
667.600	27.018	0.099
667.700	32.230	0.099
667.800	31.690	0.099
667.900	24.370	0.099
668.000	54.593	0.100
668.100	17.804	0.099
668.200	38.142	0.100
668.300	37.485	0.099
668.400	27.356	0.099
668.500	26.586	0.099
668.600	21.851	0.099
668.700	51.695	0.099
668.800	46.856	0.099
668.900	40.227	0.099
669.000	42.953	0.100
669.100	40.252	0.100
669.200	49.513	0.100
669.300	45.214	0.100
669.400	23.229	0.099
669.500	6.505	0.099
669.600	26.517	0.099
669.700	43.794	0.099
669.800	12.643	0.099
669.900	41.346	0.099
670.000	28.263	0.099
670.100	40.829	0.099
670.200	31.378	0.099
670.300	21.438	0.099
670.400	42.001	0.099
670.500	12.790	0.099
670.600	49.139	0.099
670.700	55.188	0.099
670.800	33.290	0.099
670.900	36.783	0.100
671.000	32.744	0.099
671.100	45.886	0.099
671.200	33.487	0.099
671.300	29.993	0.099
671.400	35.986	0.099
671.500	34.781	0.100
671.600	14.718	0.099
671.700	36.746	0.099
671.800	63.062	0.099
671.900	24.640	0.099
672.000	26.049	0.099
672.100	35.430	0.099
672.200	30.311	0.099
672.300	30.231	0.099
672.400	40.518	0.099
672.500	37.080	0.099
672.600	39.348	0.099
672.700	28.529	0.099
672.800	40.234	0.099
672.900	32.178	0.099
673.000	38.105	0.099
673.100	23.071	0.099
673.200	26.220	0.099
673.300	35.120	0.099
673.400	47.887	0.099
673.500	36.645	0.099
673.600	20.541	0.099
673.700	17.973	0.099
673.800	19.823	0.099
673.900	40.793	0.099
674.000	29.449	0.100
674.100	24.798	0.099
674.200	54.775	0.099
674.300	22.373	0.099
674.400	36.140	0.099
674.500	43.155	0.099
674.600	37.969	0.099
674.700	29.709	0.099
674.800	33.383	0.099
674.900	24.071	0.100
675.000	26.167	0.099
675.100	37.719	0.100
675.200	31.196	0.099
675.300	37.478	0.100
675.400	31.134	0.099
675.500	35.507	0.099
675.600	10.241	0.099
675.700	63.640	0.099
675.800	33.850	0.099
675.900	25.283	0.099
676.000	40.327	0.099
676.100	29.765	0.100
676.200	40.552	0.099
676.300	26.658	0.099
676.400	46.538	0.099
676.500	26.999	0.099
676.600	34.855	0.099
676.700	27.559	0.099
676.800	32.963	0.099
676.900	38.998	0.099
677.000	22.855	0.099
677.100	29.521	0.099
677.200	35.913	0.099
677.300	36.225	0.099
677.400	46.663	0.099
677.500	21.857	0.099
677.600	40.043	0.099
677.700	30.685	0.100
677.800	27.394	0.099
677.900	45.655	0.099
678.000	41.716	0.099
678.100	26.870	0.099
678.200	38.186	0.099
678.300	31.619	0.099
678.400	27.469	0.099
678.500	38.329	0.099
678.600	13.776	0.099
678.700	35.034	0.099
678.800	21.679	0.099
678.900	44.595	0.099
679.000	42.025	0.099
679.100	15.766	0.099
679.200	29.164	0.099
679.300	40.492	0.099
679.400	35.011	0.100
679.500	34.042	0.099
679.600	25.411	0.099
679.700	17.998	0.099
679.800	30.873	0.099
679.900	21.086	0.099
680.000	43.968	0.099
680.100	38.569	0.099
680.200	36.025	0.099
680.300	30.087	0.099
680.400	31.445	0.099
680.500	32.804	0.099
680.600	33.215	0.099
680.700	31.647	0.100
680.800	44.098	0.099
680.900	26.592	0.099
681.000	27.663	0.099
681.100	49.341	0.100
681.200	28.782	0.099
681.300	33.135	0.099
681.400	20.393	0.099
681.500	29.023	0.099
681.600	45.423	0.099
681.700	8.972	0.100
681.800	22.267	0.099
681.900	32.726	0.099
682.000	33.306	0.099
682.100	33.565	0.099
682.200	44.129	0.099
682.300	31.737	0.099
682.400	10.207	0.099
682.500	62.377	0.099
682.600	34.710	0.099
682.700	30.732	0.100
682.800	32.092	0.099
682.900	23.188	0.099
683.000	45.073	0.099
683.100	14.818	0.099
683.200	42.334	0.099
683.300	38.204	0.099
683.400	34.145	0.099
683.500	44.292	0.099
683.600	18.999	0.100
683.700	31.806	0.100
683.800	33.228	0.099
683.900	20.906	0.099
684.000	53.088	0.099
684.100	21.985	0.099
684.200	28.012	0.099
684.300	17.629	0.100
684.400	36.634	0.099
684.500	38.011	0.099
684.600	37.680	0.099
684.700	26.179	0.099
684.800	41.322	0.100
684.900	27.374	0.099
685.000	49.577	0.100
685.100	18.869	0.100
685.200	35.409	0.099
685.300	32.535	0.099
685.400	38.671	0.099
685.500	7.540	0.100
685.600	43.898	0.099
685.700	50.100	0.099
685.800	34.450	0.099
685.900	32.763	0.099
686.000	34.571	0.099
686.100	52.317	0.099
686.200	23.567	0.099
686.300	17.107	0.099
686.400	41.255	0.099
686.500	24.364	0.099
686.600	20.371	0.099
686.700	41.084	0.100
686.800	35.379	0.099
686.900	27.281	0.100
687.000	21.704	0.099
687.100	60.951	0.099
687.200	40.939	0.100
687.300	33.838	0.099
687.400	26.787	0.100
687.500	26.478	0.099
687.600	14.309	0.099
687.700	30.009	0.099
687.800	21.817	0.099
687.900	18.851	0.099
688.000	31.878	0.099
688.100	16.816	0.099
688.200	42.018	0.099
688.300	32.204	0.099
688.400	36.957	0.099
688.500	16.314	0.099
688.600	36.885	0.099
688.700	38.017	0.099
688.800	30.702	0.099
688.900	23.634	0.099
689.000	34.463	0.099
689.100	36.488	0.099
689.200	26.060	0.099
689.300	38.011	0.099
689.400	25.383	0.099
689.500	40.519	0.100
689.600	27.569	0.099
689.700	33.397	0.099
689.800	40.479	0.100
689.900	32.568	0.099
690.000	21.142	0.099
690.100	24.330	0.100
690.200	44.485	0.099
690.300	14.638	0.099
690.400	43.596	0.099
690.500	26.991	0.099
690.600	8.325	0.099
690.700	23.877	0.099
690.800	10.353	0.099
690.900	11.989	0.099
691.000	-7.312	0.100
691.100	-11.507	0.099
691.200	-16.923	0.099
691.300	-16.125	0.099
691.400	-2.773	0.099
691.500	-28.493	0.100
691.600	-0.071	0.100
691.700	-41.670	0.099
691.800	-7.495	0.099
691.900	-18.436	0.100
692.000	-35.237	0.099
692.100	-17.798	0.100
692.200	-16.648	0.099
692.300	-12.418	0.099
692.400	-25.501	0.099
692.500	-16.828	0.099
692.600	-20.809	0.099
692.700	-41.840	0.099
692.800	-10.779	0.100
692.900	-23.163	0.100
693.000	-17.756	0.099
693.100	-29.289	0.099
693.200	-13.233	0.099
693.300	-26.553	0.099
693.400	-18.682	0.099
693.500	-28.817	0.099
693.600	-16.533	0.099
693.700	-21.322	0.100
693.800	-22.869	0.099
693.900	-18.252	0.099
694.000	-12.127	0.099
694.100	-23.033	0.099
694.200	-47.700	0.099
694.300	-24.301	0.099
694.400	-18.831	0.099
694.500	-28.361	0.099
694.600	-30.472	0.099
694.700	-41.530	0.099
694.800	-35.306	0.099
694.900	-18.613	0.099
695.000	-28.748	0.099
695.100	-42.724	0.099
695.200	-25.390	0.100
695.300	-30.146	0.099
695.400	-35.115	0.099
695.500	-25.924	0.099
695.600	-29.031	0.099
695.700	-23.576	0.099
695.800	-20.416	0.099
695.900	-4.042	0.099
696.000	-20.345	0.099
696.100	-33.900	0.099
696.200	-26.505	0.100
696.300	-20.653	0.099
696.400	-15.696	0.099
696.500	-23.531	0.099
696.600	-18.481	0.099
696.700	-32.437	0.099
696.800	-22.422	0.099
696.900	-23.823	0.099
697.000	-23.604	0.099
697.100	-16.067	0.099
697.200	-26.806	0.099
697.300	-13.203	0.099
697.400	-25.437	0.099
697.500	-15.047	0.100
697.600	-23.505	0.100
697.700	-21.168	0.099
697.800	-14.671	0.100
697.900	-22.791	0.099
698.000	-15.836	0.099
698.100	-13.514	0.099
698.200	-27.933	0.099
698.300	-13.096	0.099
698.400	-17.847	0.099
698.500	-11.613	0.099
698.600	-20.783	0.099
698.700	-22.820	0.099
698.800	-16.491	0.099
698.900	-13.970	0.099
699.000	-21.462	0.099
699.100	-27.076	0.100
699.200	-20.507	0.099
699.300	-28.980	0.099
699.400	-28.677	0.100
699.500	-24.874	0.099
699.600	-8.309	0.099
699.700	-27.483	0.100
699.800	-28.562	0.099
699.900	-6.120	0.099
700.000	-20.358	0.099
700.100	-20.040	0.100
700.200	-26.110	0.099
700.300	-29.896	0.099
700.400	-24.046	0.100
700.500	-27.001	0.100
700.600	-26.072	0.099
700.700	-25.445	0.099
700.800	-20.245	0.099
700.900	-2.981	0.099
701.000	-22.667	0.099
701.100	-19.972	0.099
701.200	-33.713	0.099
701.300	-25.893	0.099
701.400	-18.701	0.099
701.500	-31.582	0.099
701.600	-26.429	0.099
701.700	-32.624	0.099
701.800	-27.988	0.099
701.900	-16.832	0.099
702.000	-19.283	0.099
702.100	-26.070	0.099
702.200	-27.028	0.099
702.300	-36.325	0.099
702.400	-25.009	0.099
702.500	-17.939	0.099
702.600	-4.366	0.099
702.700	-42.163	0.099
702.800	-25.447	0.099
702.900	-28.929	0.099
703.000	-31.157	0.099
703.100	-28.334	0.099
703.200	-28.684	0.099
703.300	-29.339	0.099
703.400	-37.823	0.099
703.500	-11.479	0.099
703.600	-25.327	0.099
703.700	-20.737	0.099
703.800	-5.567	0.099
703.900	-30.369	0.099
704.000	-23.637	0.099
704.100	-39.189	0.099
704.200	-31.029	0.099
704.300	-17.049	0.099
704.400	-19.710	0.099
704.500	-21.301	0.099
704.600	-24.086	0.099
704.700	-18.706	0.099
704.800	4.563	0.099
704.900	-26.938	0.099
705.000	-20.567	0.099
705.100	-23.263	0.099
705.200	-33.282	0.100
705.300	-30.499	0.099
705.400	-12.800	0.099
705.500	-28.743	0.099
705.600	-33.098	0.099
705.700	-20.786	0.099
705.800	-26.050	0.099
705.900	-24.426	0.099
706.000	0.567	0.099
706.100	-30.840	0.099
706.200	-21.166	0.099
706.300	-25.969	0.099
706.400	-30.655	0.099
706.500	-36.807	0.099
706.600	-26.802	0.099
706.700	-23.575	0.099
706.800	-22.970	0.099
706.900	-18.560	0.099
707.000	-11.893	0.099
707.100	-10.679	0.099
707.200	-32.411	0.099
707.300	-16.012	0.099
707.400	-29.473	0.099
707.500	-14.182	0.099
707.600	-32.602	0.099
707.700	-18.865	0.099
707.800	-46.782	0.099
707.900	-18.951	0.099
708.000	-26.584	0.099
708.100	-12.213	0.099
708.200	-20.649	0.099
708.300	-26.975	0.099
708.400	-23.640	0.099
708.500	-23.025	0.099
708.600	-42.136	0.099
708.700	-36.165	0.099
708.800	-27.676	0.099
708.900	-37.186	0.100
709.000	-12.463	0.100
709.100	-51.095	0.099
709.200	-24.464	0.099
709.300	-9.742	0.099
709.400	-33.452	0.099
709.500	-30.181	0.099
709.600	-25.752	0.099
709.700	-16.978	0.099
709.800	-24.159	0.099
709.900	-34.053	0.099
710.000	-35.851	0.099
710.100	-6.058	0.100
710.200	-25.936	0.099
710.300	-47.099	0.099
710.400	-12.652	0.099
710.500	-32.039	0.100
710.600	-16.188	0.099
710.700	-20.430	0.100
710.800	-37.985	0.100
710.900	-13.485	0.099
711.000	-40.483	0.099
711.100	-22.043	0.099
711.200	-20.497	0.099
711.300	-13.022	0.099
711.400	-14.129	0.099
711.500	-17.974	0.099
711.600	-37.525	0.099
711.700	-6.127	0.100
711.800	-16.133	0.099
711.900	-27.037	0.099
712.000	-17.608	0.099
712.100	-31.804	0.100
712.200	-17.174	0.099
712.300	-17.367	0.099
712.400	-29.488	0.099
712.500	-11.705	0.099
712.600	-30.348	0.100
712.700	-22.458	0.099
712.800	-15.735	0.099
712.900	-23.243	0.099
713.000	-17.106	0.099
713.100	-5.931	0.100
713.200	-20.978	0.099
713.300	-28.027	0.099
713.400	-33.064	0.099
713.500	-14.261	0.099
713.600	-20.989	0.099
713.700	-45.100	0.099
713.800	-33.580	0.099
713.900	-33.210	0.099
714.000	-12.368	0.099
714.100	-33.090	0.099
714.200	-24.257	0.099
714.300	-30.240	0.099
714.400	-14.611	0.099
714.500	-41.607	0.099
714.600	-12.362	0.100
714.700	-21.000	0.099
714.800	-28.415	0.100
714.900	-34.697	0.099
715.000	-22.739	0.099
715.100	-19.525	0.099
715.200	-27.092	0.099
715.300	-6.029	0.099
715.400	-14.399	0.099
715.500	-45.818	0.099
715.600	-41.301	0.099
715.700	-12.712	0.099
715.800	-22.198	0.099
715.900	-28.166	0.099
716.000	-18.555	0.099
716.100	-16.696	0.099
716.200	-25.253	0.099
716.300	-46.614	0.099
716.400	-24.805	0.099
716.500	-35.378	0.099
716.600	-2.271	0.099
716.700	-27.978	0.099
716.800	-25.546	0.099
716.900	-35.956	0.099
717.000	-31.833	0.099
717.100	-41.790	0.099
717.200	-17.865	0.099
717.300	-16.554	0.099
717.400	-3.947	0.099
717.500	-31.516	0.099
717.600	-30.574	0.099
717.700	-27.786	0.099
717.800	-28.216	0.099
717.900	-29.988	0.099
718.000	-15.183	0.099
718.100	-35.295	0.099
718.200	-50.107	0.099
718.300	-13.871	0.099
718.400	-26.604	0.099
718.500	-17.639	0.099
718.600	-18.200	0.099
718.700	-22.659	0.099
718.800	-21.277	0.099
718.900	-46.193	0.099
719.000	-7.055	0.099
719.100	-11.816	0.099
719.200	-24.393	0.099
719.300	-47.032	0.099
719.400	-10.589	0.099
719.500	-15.969	0.099
719.600	-22.870	0.099
719.700	-26.930	0.099
719.800	-4.940	0.099
719.900	-36.497	0.099
720.000	-11.977	0.099
720.100	-35.253	0.099
720.200	-24.169	0.099
720.300	-32.817	0.099
720.400	-23.760	0.099
720.500	-38.516	0.099
720.600	-19.692	0.099
720.700	-37.738	0.099
720.800	-37.039	0.099
720.900	-14.916	0.099
721.000	-28.845	0.099
721.100	-18.048	0.099
721.200	-26.362	0.099
721.300	-7.009	0.099
721.400	-23.968	0.099
721.500	-22.361	0.099
721.600	-29.528	0.099
721.700	-18.786	0.099
721.800	-17.694	0.099
721.900	-12.892	0.099
722.000	-9.530	0.099
722.100	-31.176	0.099
722.200	-33.255	0.099
722.300	-15.722	0.099
722.400	-30.361	0.099
722.500	-26.526	0.099
722.600	-29.524	0.099
722.700	-33.408	0.099
722.800	-35.594	0.099
722.900	-23.730	0.099
723.000	-16.205	0.099
723.100	-34.928	0.099
723.200	-33.362	0.099
723.300	-12.823	0.099
723.400	-11.017	0.099
723.500	-23.313	0.099
723.600	-26.059	0.099
723.700	-26.704	0.099
723.800	-44.077	0.099
723.900	-23.762	0.099
724.000	-24.021	0.099
724.100	-18.160	0.099
724.200	-26.860	0.099
724.300	-26.739	0.099
724.400	-21.269	0.099
724.500	-31.692	0.099
724.600	-8.897	0.099
724.700	-33.937	0.099
724.800	-31.660	0.099
724.900	-21.499	0.099
725.000	-2.134	0.099
725.100	-33.565	0.099
725.200	-17.271	0.099
725.300	-13.308	0.099
725.400	-32.254	0.099
725.500	-22.968	0.099
725.600	-14.225	0.099
725.700	-28.833	0.099
725.800	-20.557	0.099
725.900	-25.314	0.099
726.000	-6.251	0.099
726.100	-20.097	0.099
726.200	-38.977	0.099
726.300	-9.690	0.099
726.400	-24.929	0.099
726.500	-40.526	0.099
726.600	-24.616	0.099
726.700	-14.462	0.099
726.800	-17.273	0.099
726.900	-33.501	0.099
727.000	-18.622	0.099
727.100	-13.903	0.099
727.200	-28.143	0.099
727.300	-22.342	0.099
727.400	-24.370	0.099
727.500	-23.720	0.099
727.600	-15.391	0.099
727.700	-25.232	0.099
727.800	-6.834	0.099
727.900	-21.715	0.099
728.000	-18.800	0.099
728.100	-5.597	0.099
728.200	-14.049	0.099
728.300	-10.619	0.099
728.400	-26.171	0.099
728.500	-26.126	0.099
728.600	-15.683	0.099
728.700	-8.402	0.099
728.800	-44.479	0.099
728.900	-17.488	0.099
729.000	-17.306	0.099
729.100	-19.365	0.099
729.200	-20.458	0.099
729.300	-7.019	0.099
729.400	-32.735	0.099
729.500	-34.796	0.099
729.600	-15.664	0.099
729.700	-21.329	0.099
729.800	-15.758	0.099
729.900	-20.392	0.099
730.000	-11.364	0.099
730.100	-16.211	0.099
730.200	-37.454	0.099
730.300	-28.529	0.099
730.400	-6.445	0.099
730.500	-19.124	0.099
730.600	-11.958	0.099
730.700	-20.487	0.099
730.800	-20.786	0.099
730.900	-24.103	0.099
731.000	-33.753	0.099
731.100	-17.221	0.099
731.200	-32.345	0.099
731.300	-12.642	0.099
731.400	-6.286	0.099
731.500	-11.939	0.099
731.600	-27.628	0.099
731.700	-16.761	0.099
731.800	-27.529	0.099
731.900	-6.763	0.099
732.000	-26.649	0.099
732.100	-14.211	0.099
732.200	-20.280	0.099
732.300	-30.299	0.099
732.400	-26.674	0.099
732.500	-16.243	0.099
732.600	-22.381	0.099
732.700	-31.490	0.099
732.800	-18.226	0.099
732.900	-11.730	0.099
733.000	-34.233	0.099
733.100	-5.173	0.099
733.200	-12.377	0.099
733.300	-16.361	0.099
733.400	-44.620	0.099
733.500	-9.935	0.099
733.600	-33.672	0.099
733.700	-20.590	0.099
733.800	-12.400	0.099
733.900	-20.375	0.099
734.000	-25.107	0.099
734.100	-21.016	0.099
734.200	-37.899	0.099
734.300	-11.703	0.099
734.400	-17.484	0.099
734.500	-25.169	0.099
734.600	-7.234	0.099
734.700	-17.421	0.099
734.800	-11.221	0.099
734.900	-19.124	0.099
735.000	-11.580	0.099
735.100	-20.672	0.099
735.200	-23.178	0.099
735.300	-13.850	0.099
735.400	-19.293	0.099
735.500	-35.342	0.099
735.600	-13.730	0.099
735.700	-26.602	0.099
735.800	-23.537	0.099
735.900	4.910	0.099
736.000	-21.033	0.099
736.100	9.918	0.099
736.200	-24.221	0.099
736.300	-24.952	0.099
736.400	-45.127	0.099
736.500	-18.070	0.099
736.600	-18.480	0.099
736.700	-17.064	0.099
736.800	-10.706	0.099
736.900	-18.320	0.099
737.000	-9.392	0.099
737.100	-16.616	0.099
737.200	-18.388	0.099
737.300	-26.610	0.099
737.400	-33.286	0.099
737.500	-2.631	0.099
737.600	-15.241	0.099
737.700	-19.207	0.099
737.800	-28.273	0.099
737.900	-20.689	0.099
738.000	-6.610	0.100
738.100	-5.047	0.099
738.200	-48.634	0.099
738.300	-6.015	0.099
738.400	-20.284	0.099
738.500	-9.207	0.099
738.600	-17.449	0.099
738.700	-26.330	0.099
738.800	-16.185	0.099
738.900	0.562	0.099
739.000	-20.317	0.100
739.100	-27.966	0.099
739.200	-13.360	0.099
739.300	-26.999	0.099
739.400	-28.642	0.099
739.500	-24.493	0.099
739.600	-13.192	0.099
739.700	-3.362	0.099
739.800	-13.900	0.099
739.900	-13.041	0.099
740.000	-26.033	0.099
740.100	-23.913	0.099
740.200	-15.389	0.099
740.300	-22.232	0.099
740.400	-12.352	0.099
740.500	-18.372	0.099
740.600	-0.304	0.099
740.700	-23.463	0.099
740.800	-23.635	0.099
740.900	-24.706	0.099
741.000	-21.822	0.099
741.100	-15.713	0.099
741.200	-9.877	0.099
741.300	-3.717	0.099
741.400	-4.969	0.099
741.500	-33.561	0.099
741.600	-24.427	0.099
741.700	-13.051	0.099
741.800	-3.944	0.099
741.900	-18.521	0.099
742.000	-15.537	0.099
742.100	-11.168	0.099
742.200	-22.369	0.099
742.300	-21.836	0.099
742.400	-19.661	0.099
742.500	-21.471	0.099
742.600	-0.379	0.099
742.700	-36.248	0.099
742.800	-2.025	0.099
742.900	-7.264	0.099
743.000	-12.923	0.099
743.100	-24.051	0.099
743.200	-17.111	0.099
743.300	-3.981	0.099
743.400	-17.290	0.099
743.500	-25.373	0.099
743.600	-16.558	0.099
743.700	-29.210	0.099
743.800	-6.427	0.099
743.900	-9.366	0.099
744.000	-21.508	0.099
744.100	-23.499	0.099
744.200	-22.932	0.099
744.300	-9.294	0.099
744.400	-10.752	0.099
744.500	-35.278	0.099
744.600	-10.199	0.099
744.700	-8.202	0.099
744.800	-16.994	0.099
744.900	-21.785	0.099
745.000	-12.833	0.099
745.100	-9.470	0.099
745.200	-11.377	0.099
745.300	-11.606	0.099
745.400	-23.094	0.099
745.500	-2.974	0.099
745.600	-31.357	0.099
745.700	-18.050	0.099
745.800	-5.757	0.099
745.900	-8.859	0.099
746.000	-17.762	0.099
746.100	-19.627	0.099
746.200	-20.219	0.099
746.300	-13.533	0.099
746.400	-21.143	0.099
746.500	-21.851	0.099
746.600	-1.996	0.099
746.700	-17.488	0.099
746.800	-25.167	0.099
746.900	-21.950	0.099
747.000	-29.139	0.099
747.100	-37.819	0.099
747.200	0.557	0.099
747.300	-20.113	0.099
747.400	-23.158	0.099
747.500	-20.466	0.099
747.600	0.945	0.099
747.700	-22.547	0.099
747.800	-4.350	0.099
747.900	-11.283	0.099
748.000	-12.718	0.099
748.100	-22.617	0.099
748.200	-12.477	0.099
748.300	-29.743	0.099
748.400	2.894	0.099
748.500	4.100	0.099
748.600	-10.418	0.099
748.700	-22.982	0.099
748.800	-10.988	0.099
748.900	-12.417	0.099
749.000	-13.386	0.099
749.100	-35.340	0.099
749.200	-14.772	0.099
749.300	-27.243	0.099
749.400	-18.523	0.099
749.500	-14.217	0.099
749.600	-9.445	0.099
749.700	-8.459	0.099
749.800	-4.804	0.099
749.900	-13.165	0.099
750.000	-27.946	0.099
750.100	-10.378	0.099
750.200	-11.749	0.099
750.300	4.036	0.099
750.400	-19.297	0.099
750.500	-41.995	0.099
750.600	-5.600	0.099
750.700	-2.167	0.099
750.800	-37.539	0.099
750.900	-16.237	0.099
751.000	-9.667	0.099
751.100	-4.467	0.099
751.200	-22.837	0.099
751.300	-17.590	0.099
751.400	-14.400	0.099
751.500	-24.223	0.099
751.600	-5.779	0.099
751.700	-20.789	0.099
751.800	-11.199	0.099
751.900	-16.172	0.099
752.000	-8.705	0.099
752.100	-19.859	0.099
752.200	-29.750	0.099
752.300	-24.558	0.099
752.400	-5.702	0.099
752.500	-35.511	0.099
752.600	-7.695	0.099
752.700	2.086	0.099
752.800	-9.158	0.099
752.900	-0.646	0.099
753.000	-30.488	0.099
753.100	-16.166	0.099
753.200	-13.702	0.099
753.300	-6.425	0.099
753.400	-31.342	0.099
753.500	16.602	0.099
753.600	-33.820	0.099
753.700	-7.936	0.099
753.800	-23.365	0.099
753.900	-23.052	0.099
754.000	-8.894	0.099
754.100	-0.123	0.099
754.200	-29.552	0.099
754.300	-23.457	0.099
754.400	-13.314	0.099
754.500	-23.408	0.099
754.600	-22.949	0.099
754.700	-4.759	0.099
754.800	-32.214	0.099
754.900	-2.411	0.099
755.000	16.375	0.099
755.100	-10.837	0.099
755.200	-14.694	0.099
755.300	-6.020	0.099
755.400	-9.658	0.099
755.500	-20.631	0.099
755.600	-12.440	0.099
755.700	-26.773	0.099
755.800	-14.913	0.099
755.900	-7.109	0.099
756.000	-16.984	0.099
756.100	-21.702	0.099
756.200	-23.028	0.099
756.300	-10.587	0.099
756.400	-21.614	0.099
756.500	-9.363	0.099
756.600	-25.517	0.099
756.700	-1.774	0.099
756.800	-19.264	0.099
756.900	-18.561	0.099
757.000	-0.102	0.099
757.100	-28.193	0.099
757.200	-8.384	0.099
757.300	-8.843	0.099
757.400	-30.603	0.099
757.500	-13.990	0.099
757.600	-27.174	0.099
757.700	-24.629	0.099
757.800	-4.134	0.099
757.900	-13.050	0.099
758.000	-5.046	0.099
758.100	-36.612	0.099
758.200	-16.862	0.099
758.300	-6.032	0.099
758.400	-13.887	0.099
758.500	-12.463	0.099
758.600	-13.237	0.099
758.700	-11.023	0.099
758.800	0.929	0.099
758.900	-11.814	0.099
759.000	-22.749	0.099
759.100	-19.123	0.099
759.200	-7.571	0.099
759.300	-7.352	0.099
759.400	-31.425	0.099
759.500	4.772	0.099
759.600	-21.255	0.099
759.700	-17.976	0.099
759.800	-16.234	0.099
759.900	-24.046	0.099
760.000	-18.931	0.099
760.100	3.091	0.099
760.200	-19.297	0.099
760.300	-19.271	0.099
760.400	-11.156	0.099
760.500	-22.332	0.099
760.600	-18.381	0.099
760.700	-16.281	0.099
760.800	9.395	0.099
760.900	-16.667	0.099
761.000	-6.426	0.099
761.100	-28.008	0.099
761.200	-9.146	0.099
761.300	-0.953	0.099
761.400	-7.721	0.099
761.500	-13.303	0.099
761.600	-11.190	0.099
761.700	-23.107	0.099
761.800	-19.828	0.099
761.900	-13.840	0.099
762.000	5.033	0.099
762.100	-18.378	0.099
762.200	1.266	0.099
762.300	-12.642	0.099
762.400	-12.252	0.099
762.500	-12.119	0.099
762.600	-17.406	0.099
762.700	-22.215	0.099
762.800	-11.793	0.099
762.900	11.474	0.099
763.000	-3.194	0.099
763.100	-33.950	0.099
763.200	-7.986	0.099
763.300	-23.956	0.099
763.400	-5.005	0.099
763.500	-14.353	0.099
763.600	-2.952	0.099
763.700	-4.929	0.099
763.800	-9.081	0.099
763.900	-16.901	0.099
764.000	-6.501	0.099
764.100	-2.143	0.099
764.200	-5.206	0.099
764.300	-8.961	0.099
764.400	-3.553	0.099
764.500	-14.409	0.099
764.600	-17.540	0.099
764.700	-23.695	0.099
764.800	5.636	0.099
764.900	-12.023	0.099
765.000	-13.214	0.099
765.100	-13.165	0.099
765.200	-11.032	0.099
765.300	-36.729	0.099
765.400	-8.088	0.099
765.500	-7.446	0.099
765.600	-18.638	0.099
765.700	-12.326	0.099
765.800	-12.671	0.099
765.900	-18.641	0.099
766.000	-6.946	0.099
766.100	-5.054	0.099
766.200	-7.918	0.099
766.300	-15.471	0.099
766.400	-22.935	0.099
766.500	8.782	0.099
766.600	8.612	0.099
766.700	-8.813	0.099
766.800	-0.569	0.099
766.900	-13.523	0.099
767.000	-21.404	0.099
767.100	-11.838	0.099
767.200	-9.807	0.099
767.300	-15.893	0.099
767.400	-6.229	0.099
767.500	-8.151	0.099
767.600	-21.987	0.099
767.700	-4.890	0.099
767.800	-7.524	0.099
767.900	-14.726	0.099
768.000	-16.976	0.099
768.100	-14.248	0.099
768.200	-2.893	0.099
768.300	-8.194	0.099
768.400	-8.605	0.099
768.500	-16.987	0.099
768.600	-6.467	0.099
768.700	-3.541	0.099
768.800	-21.635	0.099
768.900	-7.886	0.099
769.000	-4.238	0.099
769.100	-14.969	0.099
769.200	-18.147	0.099
769.300	-2.037	0.099
769.400	-4.144	0.099
769.500	-16.628	0.099
769.600	-11.563	0.099
769.700	-1.844	0.099
769.800	-7.376	0.099
769.900	-16.848	0.099
770.000	-14.928	0.099
770.100	-17.157	0.099
770.200	-19.571	0.099
770.300	7.647	0.099
770.400	-14.050	0.099
770.500	-26.628	0.099
770.600	-21.834	0.099
770.700	3.728	0.099
770.800	-21.133	0.099
770.900	-29.942	0.099
771.000	-14.882	0.099
771.100	-10.047	0.099
771.200	-13.840	0.099
771.300	-5.459	0.099
771.400	-2.235	0.099
771.500	-21.004	0.099
771.600	-17.244	0.099
771.700	-20.721	0.099
771.800	-5.523	0.099
771.900	5.419	0.099
772.000	-22.261	0.099
772.100	-3.267	0.099
772.200	-14.651	0.099
772.300	-0.989	0.099
772.400	-18.983	0.099
772.500	-17.715	0.099
772.600	6.767	0.099
772.700	-8.750	0.099
772.800	-17.135	0.099
772.900	-3.770	0.099
773.000	-22.349	0.099
773.100	-17.938	0.099
773.200	-16.517	0.099
773.300	5.209	0.099
773.400	-10.355	0.099
773.500	-14.641	0.099
773.600	-11.730	0.099
773.700	-10.006	0.099
773.800	-12.514	0.099
773.900	2.968	0.099
774.000	-9.024	0.099
774.100	-20.827	0.099
774.200	-15.988	0.099
774.300	-17.247	0.099
774.400	-25.489	0.099
774.500	-5.590	0.099
774.600	-16.164	0.099
774.700	-2.372	0.099
774.800	-28.169	0.099
774.900	-17.847	0.099
775.000	-0.622	0.099
775.100	-6.580	0.099
775.200	-9.067	0.099
775.300	-18.129	0.099
775.400	1.516	0.099
775.500	-29.278	0.099
775.600	-16.726	0.099
775.700	-9.762	0.099
775.800	-21.027	0.099
775.900	-12.240	0.099
776.000	-12.671	0.099
776.100	-11.693	0.099
776.200	-5.082	0.099
776.300	3.161	0.099
776.400	4.706	0.099
776.500	-23.625	0.099
776.600	1.353	0.099
776.700	-14.270	0.099
776.800	-14.681	0.099
776.900	12.899	0.099
777.000	-15.667	0.099
777.100	-18.025	0.099
777.200	-18.826	0.099
777.300	7.374	0.099
777.400	14.062	0.099
777.500	-8.878	0.099
777.600	-14.573	0.099
777.700	-13.372	0.099
777.800	-13.713	0.099
777.900	0.833	0.099
778.000	-19.352	0.099
778.100	-7.014	0.099
778.200	-0.890	0.099
778.300	-18.957	0.099
778.400	-2.170	0.099
778.500	-3.365	0.099
778.600	-3.828	0.099
778.700	-7.641	0.099
778.800	-7.004	0.099
778.900	-5.332	0.099
779.000	-27.843	0.099
779.100	-10.310	0.099
779.200	-14.462	0.099
779.300	-11.526	0.099
779.400	-2.202	0.099
779.500	-0.631	0.099
779.600	-12.645	0.099
779.700	-31.235	0.099
779.800	-17.948	0.099
779.900	-2.014	0.099
780.000	2.140	0.099
780.100	-8.628	0.099
780.200	-4.192	0.099
780.300	-21.657	0.099
780.400	-3.334	0.099
780.500	-15.685	0.099
780.600	-18.771	0.099
780.700	-8.739	0.099
780.800	12.224	0.099
780.900	21.328	0.099
781.000	7.495	0.099
781.100	20.098	0.099
781.200	29.403	0.099
781.300	32.192	0.099
781.400	47.009	0.099
781.500	41.064	0.099
781.600	29.903	0.099
781.700	37.449	0.099
781.800	30.231	0.099
781.900	30.559	0.099
782.000	54.878	0.099
782.100	43.432	0.099
782.200	37.988	0.099
782.300	47.609	0.099
782.400	53.341	0.099
782.500	38.386	0.099
782.600	41.556	0.099
782.700	42.994	0.099
782.800	52.660	0.099
782.900	25.146	0.099
783.000	46.667	0.099
783.100	60.057	0.099
783.200	13.442	0.099
783.300	33.927	0.099
783.400	42.824	0.099
783.500	15.944	0.099
783.600	39.000	0.099
783.700	32.650	0.099
783.800	26.066	0.099
783.900	22.832	0.099
784.000	34.127	0.099
784.100	24.307	0.099
784.200	30.984	0.099
784.300	18.634	0.099
784.400	29.646	0.099
784.500	19.358	0.099
784.600	25.159	0.099
784.700	24.908	0.099
784.800	24.797	0.099
784.900	27.704	0.099
785.000	12.907	0.099
785.100	21.558	0.099
785.200	16.017	0.099
785.300	24.262	0.099
785.400	11.166	0.099
785.500	16.890	0.099
785.600	27.449	0.099
785.700	-6.304	0.099
785.800	23.896	0.099
785.900	29.125	0.099
786.000	8.205	0.099
786.100	4.979	0.099
786.200	39.814	0.099
786.300	-2.005	0.099
786.400	32.495	0.099
786.500	18.804	0.099
786.600	11.623	0.099
786.700	29.228	0.099
786.800	25.324	0.099
786.900	13.162	0.099
787.000	15.674	0.099
787.100	28.788	0.099
787.200	25.247	0.099
787.300	8.036	0.099
787.400	34.111	0.099
787.500	21.559	0.099
787.600	14.651	0.099
787.700	17.833	0.099
787.800	25.125	0.099
787.900	37.115	0.099
788.000	14.440	0.099
788.100	33.226	0.099
788.200	26.454	0.099
788.300	-0.388	0.099
788.400	19.358	0.099
788.500	5.155	0.099
788.600	42.579	0.099
788.700	-4.740	0.099
788.800	32.000	0.099
788.900	10.451	0.099
789.000	21.461	0.099
789.100	21.226	0.099
789.200	18.522	0.099
789.300	40.942	0.099
789.400	36.551	0.099
789.500	21.162	0.099
789.600	24.242	0.099
789.700	31.596	0.099
789.800	34.223	0.099
789.900	24.255	0.099
790.000	28.644	0.099
790.100	29.696	0.099
790.200	24.052	0.099
790.300	34.037	0.099
790.400	17.306	0.099
790.500	7.373	0.099
790.600	28.056	0.099
790.700	25.007	0.099
790.800	25.227	0.099
790.900	15.868	0.099
791.000	39.504	0.099
791.100	28.982	0.099
791.200	28.716	0.099
791.300	42.749	0.099
791.400	48.774	0.099
791.500	13.367	0.099
791.600	32.673	0.099
791.700	44.000	0.099
791.800	29.608	0.099
791.900	52.444	0.099
792.000	32.023	0.099
792.100	34.987	0.099
792.200	47.283	0.099
792.300	50.726	0.099
792.400	31.304	0.099
792.500	24.303	0.099
792.600	32.147	0.099
792.700	31.291	0.099
792.800	40.311	0.099
792.900	33.167	0.099
793.000	42.167	0.099
793.100	46.149	0.099
793.200	24.238	0.099
793.300	48.132	0.099
793.400	49.325	0.099
793.500	53.045	0.099
793.600	33.332	0.099
793.700	41.361	0.099
793.800	47.377	0.099
793.900	49.393	0.099
794.000	32.589	0.099
794.100	29.563	0.099
794.200	69.111	0.099
794.300	24.025	0.099
794.400	34.829	0.099
794.500	51.311	0.099
794.600	36.505	0.099
794.700	44.739	0.099
794.800	61.176	0.099
794.900	37.450	0.099
795.000	72.245	0.099
795.100	60.673	0.099
795.200	41.432	0.099
795.300	47.873	0.099
795.400	45.343	0.099
795.500	62.368	0.099
795.600	33.891	0.099
795.700	40.741	0.099
795.800	45.791	0.099
795.900	46.923	0.099
796.000	22.861	0.099
796.100	49.017	0.099
796.200	74.646	0.099
796.300	51.155	0.099
796.400	36.182	0.099
796.500	40.167	0.099
796.600	59.917	0.099
796.700	42.782	0.099
796.800	31.956	0.099
796.900	48.532	0.099
797.000	54.381	0.099
797.100	58.421	0.099
797.200	46.130	0.099
797.300	52.480	0.099
797.400	45.118	0.099
797.500	37.669	0.099
797.600	57.156	0.099
797.700	38.443	0.099
797.800	51.694	0.099
797.900	66.951	0.099
798.000	48.016	0.099
798.100	43.680	0.099
798.200	47.836	0.099
798.300	28.264	0.099
798.400	57.198	0.099
798.500	46.997	0.099
798.600	55.060	0.099
798.700	31.852	0.099
798.800	56.120	0.099
798.900	38.597	0.099
799.000	58.270	0.099
799.100	51.360	0.099
799.200	26.640	0.099
799.300	26.224	0.099
799.400	44.288	0.099
799.500	54.059	0.099
799.600	40.317	0.099
799.700	40.403	0.099
799.800	36.757	0.099
799.900	54.100	0.099
800.000	56.405	0.099
