time /s	I /nA	E /V
0.100	-7.853	0.100
0.200	-11.167	0.100
0.300	-16.802	0.100
0.400	-10.606	0.100
0.500	-25.016	0.100
0.600	-14.220	0.100
0.700	-20.372	0.100
0.800	-11.145	0.100
0.900	-23.599	0.100
1.000	-16.043	0.100
1.100	-19.738	0.100
1.200	-7.821	0.100
1.300	-5.141	0.100
1.400	-20.813	0.100
1.500	-14.475	0.100
1.600	-9.088	0.100
1.700	-19.822	0.100
1.800	-10.837	0.100
1.900	-12.631	0.101
2.000	-7.744	0.100
2.100	-19.816	0.100
2.200	-8.589	0.100
2.300	-17.797	0.100
2.400	-14.328	0.100
2.500	-18.477	0.100
2.600	-9.045	0.100
2.700	-8.973	0.100
2.800	-20.957	0.100
2.900	-9.829	0.100
3.000	-12.720	0.101
3.100	-3.169	0.100
3.200	-9.742	0.100
3.300	-19.060	0.100
3.400	-9.035	0.100
3.500	-20.853	0.100
3.600	-6.368	0.100
3.700	-14.687	0.100
3.800	-17.083	0.100
3.900	-13.877	0.100
4.000	-0.391	0.100
4.100	-4.410	0.100
4.200	-1.664	0.100
4.300	-8.399	0.100
4.400	-21.289	0.101
4.500	-4.325	0.100
4.600	-17.370	0.100
4.700	-3.692	0.101
4.800	-14.931	0.101
4.900	-29.397	0.100
5.000	-9.503	0.100
5.100	1.114	0.100
5.200	-9.616	0.100
5.300	-20.945	0.100
5.400	-11.400	0.100
5.500	-8.386	0.100
5.600	-7.371	0.100
5.700	-26.630	0.100
5.800	-21.768	0.100
5.900	-2.531	0.100
6.000	-23.119	0.100
6.100	-19.078	0.100
6.200	-15.926	0.100
6.300	-12.081	0.100
6.400	-19.109	0.100
6.500	-13.644	0.100
6.600	-6.066	0.100
6.700	2.082	0.100
6.800	-0.687	0.100
6.900	-15.723	0.100
7.000	-5.326	0.100
7.100	-19.269	0.101
7.200	-22.664	0.101
7.300	-8.174	0.100
7.400	-4.339	0.100
7.500	-17.817	0.100
7.600	-17.744	0.100
7.700	-17.083	0.100
7.800	-16.168	0.100
7.900	-16.482	0.100
8.000	-5.333	0.100
8.100	-9.398	0.100
8.200	-8.032	0.100
8.300	-13.509	0.101
8.400	0.068	0.100
8.500	-15.904	0.100
8.600	-17.976	0.100
8.700	-4.679	0.100
8.800	-24.594	0.101
8.900	-21.149	0.101
9.000	-9.628	0.100
9.100	-4.135	0.100
9.200	-25.561	0.100
9.300	-13.032	0.100
9.400	-10.240	0.100
9.500	-10.768	0.100
9.600	-11.252	0.100
9.700	4.735	0.100
9.800	-18.824	0.100
9.900	-14.196	0.100
10.000	-8.087	0.101
10.100	2.572	0.101
10.200	-4.106	0.100
10.300	-12.450	0.100
10.400	-10.595	0.100
10.500	-21.148	0.100
10.600	-23.174	0.100
10.700	-3.335	0.100
10.800	2.805	0.100
10.900	-5.434	0.101
11.000	-13.900	0.100
11.100	-18.319	0.101
11.200	-14.203	0.100
11.300	-15.559	0.100
11.400	-22.176	0.101
11.500	-19.603	0.100
11.600	-0.180	0.101
11.700	-17.202	0.101
11.800	-18.304	0.100
11.900	-9.098	0.100
12.000	-17.734	0.100
12.100	-10.388	0.100
12.200	-11.173	0.101
12.300	-17.541	0.100
12.400	0.491	0.100
12.500	-0.617	0.100
12.600	-19.827	0.100
12.700	-10.224	0.101
12.800	-14.023	0.101
12.900	-7.389	0.100
13.000	-1.823	0.100
13.100	-14.061	0.100
13.200	-22.829	0.100
13.300	-13.639	0.100
13.400	-14.353	0.100
13.500	-12.837	0.100
13.600	-13.766	0.100
13.700	-8.552	0.100
13.800	-22.771	0.100
13.900	-8.402	0.100
14.000	-7.071	0.101
14.100	-6.229	0.101
14.200	-8.938	0.101
14.300	-24.195	0.100
14.400	-10.519	0.100
14.500	-4.793	0.100
14.600	-14.419	0.100
14.700	-4.084	0.101
14.800	-19.006	0.100
14.900	-19.142	0.100
15.000	-12.810	0.100
15.100	-13.835	0.101
15.200	0.958	0.100
15.300	-20.806	0.100
15.400	-22.074	0.101
15.500	-8.420	0.100
15.600	-21.516	0.100
15.700	-10.966	0.100
15.800	-0.502	0.100
15.900	-16.413	0.100
16.000	-12.439	0.101
16.100	-11.059	0.100
16.200	-9.554	0.101
16.300	-3.269	0.100
16.400	-11.746	0.100
16.500	-8.378	0.100
16.600	-17.764	0.101
16.700	-14.541	0.100
16.800	-9.588	0.101
16.900	-15.078	0.101
17.000	-25.609	0.100
17.100	-4.490	0.100
17.200	-4.405	0.101
17.300	3.567	0.100
17.400	-17.819	0.101
17.500	-6.873	0.101
17.600	-16.737	0.100
17.700	-24.038	0.100
17.800	-16.829	0.101
17.900	-3.730	0.101
18.000	-17.092	0.101
18.100	-16.989	0.101
18.200	-23.427	0.100
18.300	-15.123	0.101
18.400	-12.114	0.100
18.500	-2.372	0.100
18.600	-21.761	0.101
18.700	-7.224	0.101
18.800	-10.557	0.101
18.900	-15.465	0.101
19.000	-16.427	0.100
19.100	-9.522	0.100
19.200	-8.075	0.101
19.300	-18.043	0.101
19.400	-6.181	0.101
19.500	-13.549	0.101
19.600	6.200	0.101
19.700	-17.952	0.101
19.800	3.792	0.100
19.900	-6.376	0.101
20.000	-15.444	0.100
20.100	-6.965	0.101
20.200	-15.723	0.100
20.300	-7.479	0.100
20.400	-15.495	0.101
20.500	-10.630	0.100
20.600	-15.120	0.100
20.700	-11.316	0.101
20.800	-11.504	0.101
20.900	-15.664	0.101
21.000	-16.242	0.100
21.100	9.429	0.101
21.200	-9.654	0.100
21.300	-26.331	0.101
21.400	-7.936	0.101
21.500	-12.087	0.101
21.600	-15.839	0.101
21.700	-0.416	0.101
21.800	-13.783	0.101
21.900	-5.228	0.100
22.000	-6.503	0.101
22.100	3.870	0.101
22.200	-13.071	0.100
22.300	-5.576	0.101
22.400	-8.303	0.100
22.500	-10.120	0.101
22.600	-20.778	0.101
22.700	-5.486	0.100
22.800	-10.253	0.101
22.900	-14.013	0.100
23.000	-10.469	0.100
23.100	-8.529	0.100
23.200	-12.570	0.100
23.300	-12.552	0.101
23.400	-10.435	0.100
23.500	-4.845	0.101
23.600	-31.016	0.100
23.700	-24.540	0.100
23.800	1.822	0.100
23.900	1.919	0.100
24.000	-18.721	0.101
24.100	-15.345	0.100
24.200	-11.779	0.100
24.300	-12.193	0.100
24.400	-15.794	0.100
24.500	-14.503	0.101
24.600	-14.489	0.100
24.700	-3.265	0.101
24.800	-13.396	0.100
24.900	-10.535	0.100
25.000	-16.287	0.100
25.100	-3.943	0.100
25.200	-19.911	0.100
25.300	-11.606	0.100
25.400	4.319	0.100
25.500	0.309	0.100
25.600	-11.333	0.100
25.700	-1.519	0.100
25.800	-9.207	0.100
25.900	-11.589	0.100
26.000	-10.409	0.101
26.100	-17.819	0.100
26.200	-9.213	0.100
26.300	-10.035	0.100
26.400	-11.009	0.100
26.500	1.249	0.100
26.600	-11.050	0.100
26.700	-0.642	0.100
26.800	-7.498	0.101
26.900	-6.669	0.101
27.000	-11.235	0.101
27.100	-17.076	0.100
27.200	-20.493	0.100
27.300	-18.194	0.100
27.400	4.962	0.100
27.500	0.064	0.101
27.600	-15.911	0.100
27.700	-1.271	0.100
27.800	-14.934	0.100
27.900	-6.622	0.100
28.000	-3.470	0.101
28.100	-9.220	0.100
28.200	-15.288	0.100
28.300	-22.370	0.100
28.400	-2.996	0.100
28.500	-3.772	0.100
28.600	-11.863	0.100
28.700	-20.518	0.100
28.800	-4.693	0.101
28.900	4.492	0.100
29.000	-19.238	0.100
29.100	-5.252	0.101
29.200	1.404	0.101
29.300	-17.028	0.100
29.400	-19.051	0.100
29.500	-2.745	0.100
29.600	-12.748	0.100
29.700	-0.460	0.100
29.800	-8.100	0.101
29.900	-17.660	0.100
30.000	-14.141	0.100
30.100	-18.934	0.100
30.200	-13.605	0.100
30.300	-11.973	0.100
30.400	-8.236	0.100
30.500	-4.958	0.100
30.600	-8.240	0.101
30.700	-3.492	0.100
30.800	-5.016	0.100
30.900	-11.597	0.100
31.000	11.618	0.100
31.100	-20.930	0.100
31.200	-9.417	0.100
31.300	1.480	0.100
31.400	6.149	0.101
31.500	2.744	0.100
31.600	-0.410	0.100
31.700	-3.579	0.100
31.800	-5.762	0.100
31.900	6.173	0.100
32.000	2.293	0.101
32.100	14.242	0.100
32.200	0.348	0.100
32.300	8.355	0.100
32.400	3.779	0.100
32.500	14.132	0.100
32.600	-2.677	0.101
32.700	-3.101	0.100
32.800	-6.878	0.100
32.900	12.940	0.100
33.000	14.177	0.101
33.100	5.236	0.100
33.200	2.792	0.100
33.300	4.957	0.100
33.400	-8.639	0.100
33.500	0.374	0.100
33.600	15.590	0.100
33.700	5.073	0.101
33.800	3.560	0.100
33.900	11.083	0.100
34.000	-1.303	0.101
34.100	2.882	0.101
34.200	6.401	0.100
34.300	17.025	0.100
34.400	-1.447	0.101
34.500	15.888	0.101
34.600	-1.955	0.101
34.700	-1.859	0.100
34.800	11.645	0.100
34.900	10.991	0.100
35.000	5.821	0.101
35.100	4.181	0.100
35.200	14.992	0.100
35.300	16.616	0.100
35.400	6.983	0.101
35.500	-12.581	0.100
35.600	12.051	0.100
35.700	11.316	0.101
35.800	5.488	0.100
35.900	21.724	0.100
36.000	19.090	0.101
36.100	-3.395	0.100
36.200	4.244	0.100
36.300	4.969	0.100
36.400	17.774	0.100
36.500	15.835	0.100
36.600	9.689	0.100
36.700	7.266	0.100
36.800	2.809	0.100
36.900	16.671	0.100
37.000	13.646	0.101
37.100	-5.108	0.100
37.200	11.180	0.100
37.300	12.830	0.100
37.400	8.631	0.100
37.500	0.253	0.101
37.600	15.644	0.100
37.700	3.728	0.100
37.800	5.341	0.100
37.900	7.679	0.100
38.000	20.547	0.100
38.100	7.517	0.100
38.200	2.588	0.100
38.300	0.272	0.100
38.400	12.034	0.101
38.500	25.936	0.100
38.600	1.935	0.100
38.700	8.073	0.100
38.800	14.700	0.100
38.900	17.293	0.100
39.000	8.091	0.101
39.100	24.040	0.101
39.200	0.875	0.100
39.300	5.879	0.100
39.400	-6.850	0.100
39.500	-2.954	0.100
39.600	20.203	0.100
39.700	2.765	0.100
39.800	22.052	0.100
39.900	11.862	0.100
40.000	6.336	0.101
40.100	9.504	0.100
40.200	7.949	0.100
40.300	7.875	0.100
40.400	6.390	0.100
40.500	21.484	0.100
40.600	27.383	0.100
40.700	-4.970	0.101
40.800	22.876	0.101
40.900	19.351	0.101
41.000	3.835	0.100
41.100	20.163	0.101
41.200	4.202	0.101
41.300	23.178	0.101
41.400	15.415	0.101
41.500	18.234	0.100
41.600	7.350	0.101
41.700	11.378	0.101
41.800	13.764	0.100
41.900	21.626	0.100
42.000	6.670	0.100
42.100	20.074	0.100
42.200	7.270	0.100
42.300	-1.896	0.101
42.400	16.855	0.100
42.500	9.965	0.101
42.600	13.832	0.100
42.700	10.285	0.100
42.800	18.872	0.100
42.900	15.218	0.100
43.000	14.091	0.101
43.100	13.361	0.100
43.200	8.986	0.100
43.300	17.183	0.100
43.400	7.457	0.100
43.500	15.821	0.100
43.600	13.047	0.100
43.700	17.117	0.100
43.800	5.099	0.101
43.900	11.146	0.101
44.000	13.528	0.100
44.100	23.964	0.101
44.200	12.887	0.101
44.300	12.301	0.100
44.400	14.212	0.100
44.500	6.109	0.100
44.600	15.275	0.100
44.700	32.086	0.100
44.800	26.794	0.100
44.900	11.083	0.100
45.000	18.364	0.100
45.100	9.262	0.100
45.200	27.369	0.100
45.300	12.282	0.100
45.400	12.076	0.101
45.500	19.472	0.100
45.600	23.971	0.100
45.700	18.135	0.100
45.800	8.442	0.100
45.900	14.371	0.100
46.000	5.365	0.100
46.100	22.945	0.100
46.200	14.669	0.100
46.300	5.849	0.100
46.400	17.172	0.101
46.500	22.563	0.100
46.600	13.240	0.100
46.700	10.727	0.100
46.800	20.355	0.100
46.900	19.818	0.100
47.000	13.708	0.100
47.100	24.199	0.101
47.200	20.246	0.100
47.300	13.327	0.100
47.400	17.988	0.100
47.500	14.366	0.100
47.600	22.998	0.100
47.700	23.448	0.100
47.800	15.415	0.101
47.900	23.324	0.100
48.000	20.345	0.100
48.100	17.722	0.101
48.200	32.440	0.101
48.300	23.332	0.100
48.400	27.855	0.100
48.500	2.184	0.100
48.600	12.539	0.100
48.700	15.773	0.100
48.800	30.281	0.100
48.900	10.598	0.100
49.000	21.450	0.101
49.100	19.514	0.101
49.200	29.780	0.100
49.300	7.597	0.100
49.400	14.344	0.100
49.500	25.195	0.100
49.600	20.895	0.100
49.700	30.678	0.100
49.800	26.150	0.101
49.900	13.520	0.100
50.000	12.707	0.100
50.100	7.312	0.100
50.200	27.436	0.100
50.300	22.615	0.100
50.400	26.715	0.100
50.500	30.772	0.100
50.600	16.915	0.100
50.700	18.129	0.100
50.800	16.485	0.100
50.900	29.839	0.100
51.000	13.716	0.100
51.100	16.059	0.100
51.200	25.487	0.100
51.300	29.419	0.100
51.400	32.644	0.100
51.500	20.482	0.101
51.600	13.355	0.100
51.700	25.073	0.100
51.800	21.220	0.100
51.900	27.698	0.100
52.000	14.492	0.100
52.100	21.854	0.100
52.200	29.130	0.100
52.300	22.694	0.100
52.400	22.905	0.100
52.500	19.303	0.100
52.600	21.496	0.100
52.700	24.731	0.100
52.800	19.225	0.100
52.900	23.849	0.101
53.000	13.907	0.101
53.100	30.972	0.101
53.200	31.530	0.100
53.300	29.471	0.100
53.400	18.571	0.100
53.500	25.584	0.100
53.600	21.778	0.100
53.700	25.838	0.100
53.800	13.345	0.100
53.900	16.127	0.100
54.000	25.408	0.100
54.100	16.439	0.100
54.200	44.691	0.101
54.300	10.421	0.100
54.400	34.467	0.100
54.500	19.907	0.100
54.600	15.811	0.100
54.700	21.374	0.100
54.800	21.663	0.100
54.900	27.296	0.101
55.000	33.843	0.100
55.100	18.406	0.100
55.200	14.676	0.100
55.300	31.139	0.100
55.400	22.621	0.100
55.500	37.349	0.100
55.600	13.169	0.100
55.700	16.970	0.101
55.800	35.597	0.100
55.900	23.085	0.100
56.000	31.736	0.100
56.100	19.328	0.100
56.200	17.258	0.100
56.300	27.326	0.100
56.400	23.582	0.100
56.500	17.453	0.100
56.600	25.803	0.100
56.700	37.213	0.100
56.800	17.254	0.100
56.900	29.172	0.100
57.000	18.653	0.101
57.100	25.040	0.100
57.200	22.994	0.101
57.300	30.279	0.100
57.400	23.088	0.100
57.500	24.360	0.100
57.600	24.388	0.100
57.700	28.500	0.100
57.800	18.643	0.100
57.900	24.308	0.100
58.000	39.381	0.100
58.100	22.841	0.100
58.200	14.106	0.100
58.300	35.697	0.100
58.400	28.715	0.101
58.500	16.593	0.100
58.600	33.243	0.100
58.700	18.320	0.101
58.800	30.570	0.100
58.900	21.886	0.100
59.000	18.707	0.100
59.100	21.609	0.100
59.200	31.983	0.100
59.300	31.596	0.101
59.400	10.297	0.100
59.500	27.318	0.100
59.600	37.201	0.100
59.700	30.389	0.100
59.800	35.839	0.101
59.900	18.940	0.101
60.000	22.058	0.101
60.100	25.594	0.100
60.200	15.559	0.101
60.300	15.921	0.100
60.400	22.247	0.100
60.500	24.636	0.101
60.600	19.437	0.101
60.700	20.231	0.100
60.800	18.909	0.100
60.900	35.107	0.100
61.000	18.594	0.100
61.100	25.072	0.100
61.200	22.740	0.100
61.300	31.461	0.101
61.400	41.378	0.101
61.500	19.647	0.100
61.600	31.996	0.100
61.700	26.044	0.100
61.800	17.992	0.101
61.900	23.141	0.100
62.000	19.605	0.100
62.100	32.719	0.101
62.200	26.387	0.100
62.300	37.828	0.101
62.400	26.224	0.101
62.500	30.361	0.100
62.600	27.862	0.101
62.700	29.105	0.101
62.800	16.386	0.101
62.900	37.733	0.100
63.000	27.590	0.100
63.100	18.079	0.100
63.200	30.704	0.100
63.300	26.941	0.100
63.400	35.196	0.101
63.500	18.178	0.100
63.600	8.396	0.100
63.700	27.271	0.100
63.800	31.123	0.100
63.900	28.632	0.100
64.000	29.213	0.100
64.100	27.400	0.100
64.200	36.566	0.100
64.300	24.766	0.100
64.400	18.888	0.100
64.500	13.162	0.100
64.600	34.632	0.101
64.700	24.698	0.100
64.800	26.008	0.100
64.900	43.773	0.101
65.000	34.714	0.100
65.100	28.952	0.101
65.200	21.137	0.100
65.300	32.533	0.100
65.400	23.687	0.101
65.500	27.122	0.100
65.600	9.632	0.100
65.700	14.404	0.100
65.800	37.663	0.100
65.900	29.714	0.101
66.000	19.905	0.101
66.100	32.694	0.100
66.200	29.165	0.101
66.300	28.949	0.101
66.400	17.650	0.100
66.500	41.343	0.100
66.600	22.504	0.100
66.700	26.656	0.101
66.800	45.282	0.101
66.900	26.466	0.101
67.000	25.752	0.101
67.100	26.759	0.100
67.200	20.017	0.101
67.300	25.620	0.101
67.400	17.654	0.100
67.500	27.185	0.100
67.600	38.555	0.100
67.700	39.036	0.101
67.800	40.432	0.101
67.900	19.376	0.101
68.000	34.755	0.101
68.100	25.227	0.100
68.200	27.239	0.100
68.300	20.369	0.100
68.400	32.899	0.100
68.500	10.415	0.101
68.600	31.580	0.100
68.700	23.821	0.101
68.800	20.251	0.100
68.900	29.971	0.101
69.000	31.397	0.100
69.100	28.820	0.100
69.200	36.883	0.100
69.300	25.085	0.101
69.400	35.945	0.101
69.500	39.319	0.100
69.600	27.582	0.100
69.700	40.907	0.100
69.800	38.248	0.100
69.900	26.185	0.101
70.000	23.553	0.100
70.100	22.335	0.100
70.200	32.204	0.100
70.300	41.178	0.100
70.400	43.489	0.100
70.500	28.587	0.100
70.600	30.372	0.100
70.700	38.395	0.100
70.800	27.925	0.100
70.900	27.256	0.100
71.000	39.294	0.100
71.100	40.399	0.100
71.200	26.293	0.101
71.300	35.584	0.101
71.400	34.127	0.100
71.500	33.602	0.100
71.600	43.965	0.100
71.700	21.530	0.100
71.800	24.425	0.101
71.900	40.249	0.100
72.000	33.653	0.100
72.100	37.313	0.100
72.200	30.387	0.101
72.300	15.700	0.100
72.400	41.716	0.100
72.500	24.501	0.100
72.600	33.600	0.100
72.700	36.626	0.100
72.800	26.429	0.100
72.900	28.860	0.100
73.000	22.794	0.100
73.100	36.588	0.100
73.200	36.935	0.100
73.300	36.677	0.100
73.400	19.233	0.100
73.500	26.652	0.100
73.600	31.814	0.100
73.700	32.455	0.100
73.800	22.337	0.100
73.900	38.100	0.100
74.000	25.649	0.100
74.100	32.052	0.100
74.200	29.158	0.100
74.300	33.673	0.100
74.400	29.679	0.100
74.500	31.980	0.101
74.600	37.965	0.100
74.700	20.368	0.100
74.800	35.260	0.100
74.900	40.235	0.100
75.000	44.177	0.100
75.100	22.945	0.100
75.200	29.622	0.100
75.300	27.495	0.100
75.400	36.914	0.101
75.500	24.054	0.100
75.600	21.342	0.100
75.700	31.352	0.100
75.800	33.608	0.100
75.900	26.900	0.101
76.000	35.946	0.100
76.100	27.203	0.100
76.200	31.572	0.100
76.300	27.714	0.100
76.400	24.206	0.100
76.500	33.469	0.100
76.600	28.678	0.100
76.700	41.489	0.100
76.800	30.922	0.100
76.900	36.778	0.100
77.000	30.612	0.100
77.100	46.797	0.100
77.200	34.312	0.101
77.300	33.546	0.100
77.400	26.599	0.100
77.500	25.535	0.100
77.600	18.430	0.100
77.700	37.185	0.101
77.800	28.351	0.100
77.900	23.420	0.101
78.000	38.788	0.100
78.100	45.988	0.100
78.200	19.585	0.100
78.300	32.252	0.100
78.400	41.558	0.100
78.500	35.383	0.100
78.600	28.707	0.100
78.700	42.797	0.100
78.800	25.833	0.100
78.900	17.090	0.100
79.000	38.301	0.100
79.100	32.074	0.100
79.200	51.004	0.100
79.300	36.556	0.100
79.400	36.677	0.100
79.500	27.846	0.100
79.600	28.821	0.100
79.700	42.541	0.100
79.800	33.547	0.100
79.900	24.886	0.100
80.000	38.085	0.100
80.100	24.779	0.100
80.200	24.493	0.100
80.300	53.572	0.100
80.400	21.069	0.100
80.500	39.432	0.100
80.600	38.202	0.100
80.700	21.899	0.100
80.800	41.248	0.100
80.900	41.843	0.100
81.000	30.896	0.100
81.100	31.090	0.100
81.200	35.887	0.100
81.300	36.087	0.100
81.400	35.995	0.100
81.500	36.894	0.100
81.600	30.193	0.100
81.700	29.018	0.100
81.800	22.289	0.100
81.900	31.325	0.100
82.000	26.662	0.101
82.100	28.471	0.100
82.200	41.019	0.101
82.300	27.605	0.100
82.400	42.343	0.100
82.500	35.444	0.100
82.600	33.950	0.100
82.700	34.278	0.100
82.800	31.653	0.100
82.900	10.394	0.101
83.000	28.632	0.100
83.100	40.791	0.100
83.200	19.978	0.100
83.300	30.508	0.100
83.400	40.942	0.100
83.500	39.489	0.100
83.600	36.558	0.100
83.700	40.019	0.100
83.800	23.569	0.100
83.900	27.490	0.100
84.000	29.263	0.100
84.100	27.122	0.100
84.200	32.106	0.101
84.300	33.132	0.100
84.400	40.405	0.100
84.500	29.827	0.100
84.600	36.149	0.101
84.700	31.674	0.100
84.800	26.717	0.100
84.900	42.522	0.100
85.000	30.564	0.100
85.100	42.221	0.100
85.200	17.735	0.100
85.300	41.011	0.100
85.400	31.716	0.100
85.500	20.714	0.100
85.600	31.546	0.101
85.700	30.082	0.100
85.800	32.388	0.100
85.900	32.286	0.100
86.000	26.568	0.100
86.100	22.580	0.100
86.200	43.206	0.100
86.300	20.735	0.100
86.400	33.366	0.100
86.500	35.054	0.100
86.600	28.937	0.100
86.700	45.107	0.100
86.800	33.494	0.100
86.900	32.165	0.100
87.000	32.637	0.100
87.100	26.889	0.100
87.200	33.000	0.100
87.300	20.930	0.100
87.400	31.483	0.100
87.500	26.582	0.100
87.600	40.267	0.100
87.700	34.032	0.100
87.800	23.360	0.100
87.900	30.895	0.100
88.000	24.494	0.100
88.100	35.593	0.100
88.200	28.724	0.100
88.300	27.469	0.100
88.400	39.414	0.100
88.500	38.485	0.100
88.600	30.056	0.100
88.700	33.592	0.100
88.800	26.701	0.100
88.900	31.127	0.100
89.000	24.776	0.100
89.100	31.730	0.100
89.200	31.450	0.100
89.300	24.446	0.100
89.400	21.867	0.100
89.500	33.837	0.100
89.600	33.303	0.100
89.700	32.398	0.100
89.800	37.758	0.100
89.900	26.001	0.100
90.000	21.926	0.100
90.100	37.839	0.100
90.200	32.049	0.100
90.300	22.377	0.100
90.400	37.347	0.100
90.500	27.311	0.100
90.600	22.757	0.100
90.700	30.721	0.100
90.800	8.595	0.100
90.900	34.045	0.100
91.000	14.053	0.100
91.100	18.580	0.100
91.200	17.245	0.100
91.300	14.505	0.100
91.400	24.927	0.100
91.500	4.131	0.100
91.600	8.103	0.100
91.700	2.110	0.100
91.800	4.162	0.100
91.900	16.535	0.100
92.000	-3.625	0.100
92.100	-0.748	0.100
92.200	9.986	0.100
92.300	-5.023	0.100
92.400	2.769	0.100
92.500	-1.847	0.100
92.600	0.646	0.100
92.700	4.091	0.100
92.800	-6.195	0.100
92.900	6.183	0.100
93.000	-17.958	0.100
93.100	-19.724	0.100
93.200	-0.017	0.100
93.300	-8.332	0.100
93.400	-6.007	0.100
93.500	-1.591	0.100
93.600	-7.151	0.100
93.700	-11.065	0.100
93.800	-7.271	0.100
93.900	-26.774	0.100
94.000	-7.376	0.100
94.100	-12.173	0.100
94.200	-14.445	0.100
94.300	-14.286	0.100
94.400	-4.884	0.100
94.500	-14.183	0.100
94.600	-11.613	0.100
94.700	-14.486	0.100
94.800	-10.328	0.100
94.900	-10.655	0.100
95.000	0.802	0.100
95.100	-17.417	0.100
95.200	-16.492	0.100
95.300	-6.970	0.100
95.400	-24.194	0.100
95.500	-27.057	0.100
95.600	-13.590	0.100
95.700	-11.577	0.100
95.800	-15.246	0.100
95.900	-14.382	0.100
96.000	-3.090	0.100
96.100	-9.719	0.100
96.200	-10.767	0.100
96.300	-25.595	0.100
96.400	-16.976	0.100
96.500	-22.762	0.100
96.600	-17.795	0.100
96.700	-28.581	0.100
96.800	-33.764	0.100
96.900	-12.232	0.100
97.000	-9.451	0.100
97.100	-7.401	0.100
97.200	-23.932	0.100
97.300	-5.194	0.100
97.400	-13.301	0.100
97.500	-21.553	0.100
97.600	-19.160	0.100
97.700	-2.329	0.100
97.800	-16.511	0.100
97.900	-20.047	0.100
98.000	-8.066	0.100
98.100	-6.742	0.100
98.200	-17.791	0.100
98.300	-19.704	0.100
98.400	-13.103	0.100
98.500	-19.577	0.100
98.600	-12.289	0.100
98.700	-30.009	0.100
98.800	-12.397	0.100
98.900	-14.630	0.100
99.000	-25.334	0.100
99.100	-12.790	0.100
99.200	-22.307	0.100
99.300	-11.755	0.100
99.400	-9.179	0.100
99.500	-21.414	0.100
99.600	-25.639	0.100
99.700	-26.021	0.100
99.800	-21.359	0.100
99.900	-25.387	0.100
100.000	-11.770	0.100
100.100	-8.158	0.100
100.200	-29.520	0.100
100.300	-20.447	0.100
100.400	-31.893	0.100
100.500	-21.510	0.100
100.600	-11.674	0.100
100.700	-15.339	0.100
100.800	-9.364	0.100
100.900	-16.915	0.100
101.000	-18.591	0.100
101.100	-22.024	0.100
101.200	-21.775	0.100
101.300	-36.188	0.100
101.400	-15.732	0.100
101.500	-2.878	0.100
101.600	-26.106	0.100
101.700	-28.102	0.100
101.800	-24.153	0.100
101.900	-26.305	0.100
102.000	-20.661	0.100
102.100	-16.856	0.100
102.200	-7.956	0.100
102.300	-30.958	0.100
102.400	-17.991	0.100
102.500	-19.380	0.100
102.600	-24.518	0.100
102.700	-23.217	0.100
102.800	-18.771	0.100
102.900	-25.362	0.100
103.000	-25.254	0.100
103.100	-14.046	0.100
103.200	-23.935	0.100
103.300	-22.006	0.100
103.400	-17.388	0.100
103.500	-18.988	0.100
103.600	-12.896	0.100
103.700	-25.565	0.100
103.800	-11.158	0.100
103.900	-16.359	0.100
104.000	-23.664	0.100
104.100	-26.903	0.100
104.200	-20.230	0.100
104.300	-28.859	0.100
104.400	-20.057	0.100
104.500	-13.264	0.100
104.600	-12.047	0.100
104.700	-22.509	0.100
104.800	-9.553	0.100
104.900	-14.572	0.100
105.000	-19.068	0.100
105.100	-23.937	0.100
105.200	-15.053	0.100
105.300	-39.011	0.100
105.400	-21.846	0.100
105.500	-15.478	0.100
105.600	-27.618	0.100
105.700	-7.474	0.100
105.800	-14.134	0.100
105.900	-35.828	0.100
106.000	-21.685	0.100
106.100	-9.808	0.100
106.200	-12.627	0.100
106.300	-23.763	0.100
106.400	-5.470	0.100
106.500	-19.298	0.100
106.600	-28.997	0.100
106.700	-12.896	0.100
106.800	-20.140	0.100
106.900	-18.109	0.100
107.000	-35.123	0.100
107.100	-24.406	0.100
107.200	-17.543	0.100
107.300	-19.717	0.100
107.400	-26.345	0.100
107.500	-13.339	0.100
107.600	-33.442	0.100
107.700	-19.934	0.100
107.800	-9.633	0.100
107.900	-27.126	0.100
108.000	-2.020	0.100
108.100	-26.070	0.100
108.200	-24.328	0.100
108.300	-13.846	0.100
108.400	-10.168	0.100
108.500	-21.811	0.100
108.600	-15.613	0.100
108.700	-24.214	0.100
108.800	-23.535	0.100
108.900	-34.416	0.100
109.000	-22.261	0.100
109.100	-16.895	0.100
109.200	-18.747	0.100
109.300	-17.342	0.100
109.400	-22.836	0.100
109.500	-24.235	0.100
109.600	-23.898	0.100
109.700	-4.583	0.100
109.800	-25.694	0.100
109.900	-29.467	0.100
110.000	-25.905	0.100
110.100	-16.795	0.100
110.200	-26.290	0.100
110.300	-26.355	0.100
110.400	-14.638	0.100
110.500	-30.542	0.100
110.600	-9.172	0.100
110.700	-21.776	0.100
110.800	-28.337	0.100
110.900	-34.371	0.100
111.000	-12.127	0.100
111.100	-10.594	0.100
111.200	-12.863	0.100
111.300	-16.141	0.100
111.400	-5.851	0.100
111.500	-19.704	0.100
111.600	-36.125	0.100
111.700	-24.140	0.100
111.800	-21.101	0.100
111.900	-11.264	0.100
112.000	-25.210	0.100
112.100	-16.607	0.100
112.200	-23.490	0.100
112.300	-15.030	0.100
112.400	-26.342	0.100
112.500	-18.535	0.100
112.600	-14.447	0.100
112.700	-17.145	0.100
112.800	-15.955	0.100
112.900	-24.876	0.100
113.000	-26.065	0.100
113.100	-15.221	0.100
113.200	-23.178	0.100
113.300	-8.636	0.100
113.400	-29.626	0.100
113.500	-26.278	0.100
113.600	-24.436	0.100
113.700	-24.346	0.100
113.800	-3.261	0.100
113.900	-18.191	0.100
114.000	-22.583	0.100
114.100	-13.186	0.100
114.200	-25.337	0.100
114.300	-21.487	0.100
114.400	-18.742	0.100
114.500	-31.620	0.100
114.600	-9.013	0.100
114.700	-19.455	0.100
114.800	-25.397	0.100
114.900	-18.294	0.100
115.000	-24.481	0.100
115.100	-18.949	0.100
115.200	-19.488	0.100
115.300	-26.609	0.100
115.400	-21.066	0.100
115.500	-26.328	0.100
115.600	0.579	0.100
115.700	-17.368	0.100
115.800	-23.250	0.100
115.900	-15.945	0.100
116.000	-10.915	0.100
116.100	-19.471	0.100
116.200	-9.485	0.100
116.300	-20.103	0.100
116.400	-13.563	0.100
116.500	-29.690	0.100
116.600	-7.984	0.100
116.700	-19.116	0.100
116.800	-9.090	0.100
116.900	-24.656	0.100
117.000	-33.691	0.100
117.100	-17.693	0.100
117.200	-23.076	0.100
117.300	-27.799	0.100
117.400	-6.268	0.100
117.500	-20.896	0.100
117.600	-16.254	0.100
117.700	-21.240	0.100
117.800	-15.406	0.100
117.900	-15.764	0.100
118.000	-10.105	0.100
118.100	-20.859	0.100
118.200	-20.696	0.100
118.300	-0.066	0.100
118.400	-5.099	0.100
118.500	-14.956	0.100
118.600	-25.163	0.100
118.700	-17.967	0.100
118.800	-15.292	0.100
118.900	-20.241	0.100
119.000	-29.009	0.100
119.100	-3.255	0.100
119.200	-27.612	0.100
119.300	-27.993	0.100
119.400	-24.131	0.100
119.500	-22.329	0.100
119.600	-31.108	0.100
119.700	-18.326	0.100
119.800	-9.408	0.100
119.900	-14.264	0.100
120.000	-19.994	0.100
120.100	-28.831	0.100
120.200	-19.793	0.100
120.300	-23.741	0.100
120.400	-10.562	0.100
120.500	-15.420	0.100
120.600	-24.312	0.100
120.700	-27.832	0.100
120.800	-13.407	0.100
120.900	-20.381	0.100
121.000	-21.050	0.100
121.100	-20.052	0.100
121.200	-17.298	0.100
121.300	-30.491	0.100
121.400	-24.325	0.100
121.500	-7.624	0.100
121.600	-5.487	0.100
121.700	-24.154	0.100
121.800	-10.312	0.100
121.900	-16.648	0.100
122.000	-28.481	0.100
122.100	-8.839	0.100
122.200	-4.649	0.100
122.300	-19.093	0.100
122.400	-10.683	0.100
122.500	-12.459	0.100
122.600	-22.629	0.100
122.700	-8.400	0.100
122.800	-27.021	0.100
122.900	-11.577	0.100
123.000	-20.052	0.100
123.100	-15.802	0.100
123.200	-18.138	0.100
123.300	-26.981	0.100
123.400	-22.901	0.100
123.500	-22.462	0.100
123.600	-3.179	0.100
123.700	-9.389	0.100
123.800	-6.516	0.100
123.900	-27.444	0.100
124.000	-20.591	0.100
124.100	-17.171	0.100
124.200	-16.488	0.100
124.300	-30.157	0.100
124.400	-21.311	0.100
124.500	-23.472	0.100
124.600	-18.496	0.100
124.700	-25.281	0.100
124.800	-20.712	0.100
124.900	-6.518	0.100
125.000	-27.032	0.100
125.100	-1.814	0.100
125.200	-16.705	0.100
125.300	-8.575	0.100
125.400	-30.910	0.100
125.500	-11.784	0.100
125.600	-27.473	0.100
125.700	-9.991	0.100
125.800	3.991	0.100
125.900	-28.936	0.100
126.000	-19.601	0.100
126.100	-5.685	0.100
126.200	-27.827	0.100
126.300	-15.276	0.100
126.400	-21.778	0.100
126.500	-6.002	0.100
126.600	-25.152	0.100
126.700	-19.852	0.100
126.800	-14.275	0.100
126.900	-24.429	0.100
127.000	-7.542	0.100
127.100	-23.809	0.100
127.200	-5.857	0.100
127.300	-18.843	0.100
127.400	-6.045	0.100
127.500	-15.321	0.100
127.600	-34.771	0.100
127.700	-21.676	0.100
127.800	-7.452	0.100
127.900	-16.794	0.100
128.000	-26.217	0.100
128.100	-10.755	0.100
128.200	-24.560	0.100
128.300	-20.328	0.100
128.400	-17.256	0.100
128.500	-15.771	0.100
128.600	-3.458	0.100
128.700	-13.812	0.100
128.800	-17.059	0.100
128.900	-18.857	0.100
129.000	-18.137	0.100
129.100	-20.824	0.100
129.200	-9.121	0.100
129.300	7.475	0.100
129.400	-15.296	0.100
129.500	-21.028	0.100
129.600	-21.809	0.100
129.700	-23.992	0.100
129.800	-12.901	0.100
129.900	-22.194	0.100
130.000	-6.707	0.100
130.100	-16.453	0.100
130.200	-28.780	0.100
130.300	-6.015	0.100
130.400	-20.601	0.100
130.500	-12.489	0.100
130.600	-8.978	0.100
130.700	-6.537	0.100
130.800	-9.896	0.100
130.900	-31.068	0.100
131.000	-11.917	0.100
131.100	-21.144	0.100
131.200	-18.144	0.100
131.300	-7.064	0.100
131.400	-2.655	0.100
131.500	-20.610	0.100
131.600	-15.917	0.100
131.700	-5.928	0.100
131.800	-12.970	0.100
131.900	-18.601	0.100
132.000	-24.963	0.100
132.100	-21.825	0.100
132.200	-24.797	0.100
132.300	-8.511	0.100
132.400	-12.821	0.100
132.500	-18.839	0.100
132.600	-9.986	0.100
132.700	-23.758	0.100
132.800	-20.855	0.100
132.900	-13.170	0.100
133.000	-6.515	0.100
133.100	-13.649	0.100
133.200	-26.165	0.100
133.300	-9.512	0.100
133.400	-20.925	0.100
133.500	-22.329	0.100
133.600	1.074	0.100
133.700	-11.260	0.100
133.800	-7.987	0.100
133.900	-28.946	0.100
134.000	-19.116	0.100
134.100	2.892	0.100
134.200	-20.991	0.100
134.300	-20.889	0.100
134.400	-13.479	0.100
134.500	-25.591	0.100
134.600	-14.397	0.100
134.700	-7.222	0.100
134.800	-11.221	0.100
134.900	6.152	0.100
135.000	-16.403	0.100
135.100	-10.654	0.100
135.200	-21.964	0.100
135.300	-22.571	0.100
135.400	-15.022	0.100
135.500	-8.066	0.100
135.600	-25.485	0.100
135.700	-19.455	0.100
135.800	-20.245	0.100
135.900	-8.142	0.100
136.000	-11.438	0.100
136.100	-21.981	0.100
136.200	-26.010	0.100
136.300	-13.415	0.100
136.400	-7.486	0.100
136.500	-14.414	0.100
136.600	-31.133	0.100
136.700	0.633	0.100
136.800	-5.749	0.100
136.900	-16.745	0.100
137.000	-16.635	0.100
137.100	-14.409	0.100
137.200	-35.267	0.100
137.300	-9.828	0.100
137.400	-8.281	0.100
137.500	-13.878	0.100
137.600	-24.514	0.100
137.700	-28.934	0.100
137.800	-4.099	0.100
137.900	-15.142	0.100
138.000	-12.037	0.100
138.100	-20.328	0.100
138.200	-13.847	0.100
138.300	-6.718	0.100
138.400	-23.826	0.100
138.500	-9.321	0.100
138.600	-11.985	0.100
138.700	-10.595	0.100
138.800	-38.092	0.100
138.900	-16.070	0.100
139.000	-15.295	0.100
139.100	-5.733	0.100
139.200	-16.533	0.100
139.300	-13.502	0.100
139.400	-13.185	0.100
139.500	-9.654	0.100
139.600	-13.243	0.100
139.700	-28.383	0.100
139.800	-9.832	0.100
139.900	-0.049	0.100
140.000	-12.211	0.100
140.100	-8.986	0.100
140.200	-7.818	0.100
140.300	-19.727	0.100
140.400	-18.500	0.100
140.500	-25.193	0.100
140.600	-13.076	0.100
140.700	-21.561	0.100
140.800	-19.308	0.100
140.900	-20.053	0.100
141.000	-20.979	0.100
141.100	-10.029	0.100
141.200	-21.840	0.100
141.300	-29.162	0.100
141.400	-16.338	0.100
141.500	-16.984	0.100
141.600	-13.318	0.100
141.700	-2.035	0.100
141.800	-21.615	0.100
141.900	-5.590	0.100
142.000	-5.258	0.100
142.100	-17.490	0.100
142.200	-22.163	0.100
142.300	-14.689	0.100
142.400	-16.780	0.100
142.500	-13.635	0.100
142.600	-20.293	0.100
142.700	-9.843	0.100
142.800	-23.291	0.100
142.900	-8.918	0.100
143.000	-0.454	0.100
143.100	-15.788	0.100
143.200	-12.443	0.100
143.300	-20.114	0.100
143.400	-14.321	0.100
143.500	-15.567	0.100
143.600	-20.082	0.100
143.700	0.871	0.100
143.800	-24.570	0.100
143.900	-3.176	0.100
144.000	-15.841	0.100
144.100	-8.500	0.100
144.200	-22.486	0.100
144.300	-14.169	0.100
144.400	-13.659	0.100
144.500	-20.004	0.100
144.600	-21.502	0.100
144.700	-5.059	0.100
144.800	-13.069	0.100
144.900	-9.913	0.100
145.000	-11.897	0.100
145.100	-7.493	0.100
145.200	-28.803	0.100
145.300	-12.359	0.100
145.400	-11.282	0.100
145.500	-23.315	0.100
145.600	-22.697	0.100
145.700	-10.788	0.100
145.800	-21.658	0.100
145.900	-13.183	0.100
146.000	-22.765	0.100
146.100	-13.111	0.100
146.200	-4.484	0.100
146.300	-10.264	0.100
146.400	-8.537	0.100
146.500	-10.896	0.100
146.600	-14.757	0.100
146.700	-19.960	0.100
146.800	-20.814	0.100
146.900	-7.559	0.100
147.000	-27.798	0.100
147.100	-11.640	0.100
147.200	-23.690	0.100
147.300	-1.438	0.100
147.400	-19.414	0.100
147.500	-14.376	0.100
147.600	-19.035	0.100
147.700	-11.054	0.100
147.800	-17.940	0.100
147.900	-10.083	0.100
148.000	-15.695	0.100
148.100	-21.980	0.100
148.200	-27.335	0.100
148.300	-9.104	0.100
148.400	-9.268	0.100
148.500	-26.817	0.100
148.600	-12.671	0.100
148.700	-21.478	0.100
148.800	-16.615	0.100
148.900	-16.409	0.100
149.000	-16.524	0.100
149.100	-21.698	0.100
149.200	-13.663	0.100
149.300	-13.137	0.100
149.400	2.550	0.100
149.500	-7.672	0.100
149.600	-26.779	0.100
149.700	-4.629	0.100
149.800	-18.140	0.100
149.900	-8.859	0.100
150.000	-23.034	0.100
150.100	-5.429	0.100
150.200	-19.108	0.100
150.300	0.576	0.100
150.400	-25.686	0.100
150.500	-3.220	0.100
150.600	-17.355	0.100
150.700	-3.840	0.100
150.800	-17.577	0.100
150.900	-13.702	0.100
151.000	-26.866	0.100
151.100	-9.822	0.100
151.200	-7.991	0.100
151.300	-20.450	0.100
151.400	-14.014	0.100
151.500	-12.909	0.100
151.600	-20.540	0.100
151.700	7.373	0.100
151.800	-27.099	0.100
151.900	-16.349	0.100
152.000	-9.933	0.100
152.100	-10.150	0.100
152.200	-13.648	0.100
152.300	-18.865	0.100
152.400	-11.470	0.100
152.500	-13.801	0.100
152.600	-12.361	0.100
152.700	-17.202	0.100
152.800	-21.234	0.100
152.900	-8.759	0.100
153.000	-25.379	0.100
153.100	-7.399	0.100
153.200	-17.276	0.100
153.300	-15.507	0.100
153.400	-20.066	0.100
153.500	-4.786	0.100
153.600	-26.318	0.100
153.700	-3.063	0.100
153.800	-7.132	0.100
153.900	-18.837	0.100
154.000	-9.471	0.100
154.100	-10.496	0.100
154.200	0.453	0.100
154.300	-24.823	0.100
154.400	-20.492	0.100
154.500	-9.012	0.100
154.600	-6.422	0.100
154.700	-24.979	0.100
154.800	-9.348	0.100
154.900	-24.821	0.100
155.000	-12.033	0.100
155.100	-18.565	0.100
155.200	-17.262	0.100
155.300	-19.789	0.100
155.400	-14.662	0.100
155.500	-6.256	0.100
155.600	-8.254	0.100
155.700	-20.590	0.100
155.800	-20.865	0.100
155.900	-13.150	0.100
156.000	-25.361	0.100
156.100	-20.318	0.100
156.200	-4.956	0.100
156.300	-24.895	0.100
156.400	-1.195	0.100
156.500	-21.785	0.100
156.600	-23.290	0.100
156.700	-14.277	0.100
156.800	-20.778	0.100
156.900	-18.835	0.100
157.000	-11.462	0.100
157.100	-18.828	0.100
157.200	-21.186	0.100
157.300	-22.112	0.100
157.400	-8.316	0.100
157.500	-8.721	0.100
157.600	-7.369	0.100
157.700	-13.675	0.100
157.800	-16.812	0.100
157.900	-2.830	0.100
158.000	-12.988	0.100
158.100	-16.121	0.100
158.200	-11.853	0.100
158.300	-23.585	0.100
158.400	-8.398	0.100
158.500	-14.385	0.100
158.600	-7.495	0.100
158.700	-5.624	0.100
158.800	-9.929	0.100
158.900	-24.789	0.100
159.000	-14.643	0.100
159.100	-15.940	0.100
159.200	-18.962	0.100
159.300	-9.890	0.100
159.400	-13.442	0.100
159.500	-28.997	0.100
159.600	-16.084	0.100
159.700	-20.521	0.100
159.800	-15.244	0.100
159.900	-20.970	0.100
160.000	-13.993	0.100
160.100	-8.522	0.100
160.200	-10.506	0.100
160.300	-13.408	0.100
160.400	-8.800	0.100
160.500	-13.705	0.100
160.600	-11.907	0.100
160.700	-22.447	0.100
160.800	-10.342	0.100
160.900	-7.936	0.100
161.000	-13.531	0.100
161.100	-12.103	0.100
161.200	-9.572	0.100
161.300	-22.942	0.100
161.400	-14.229	0.100
161.500	-16.037	0.100
161.600	-6.952	0.100
161.700	-4.965	0.100
161.800	-19.321	0.100
161.900	-16.107	0.100
162.000	-20.774	0.100
162.100	-9.071	0.100
162.200	-9.248	0.100
162.300	-14.436	0.100
162.400	-18.327	0.100
162.500	-12.411	0.100
162.600	-4.931	0.100
162.700	-5.054	0.100
162.800	-17.571	0.100
162.900	-6.436	0.100
163.000	-11.716	0.100
163.100	-17.097	0.100
163.200	-11.724	0.100
163.300	-28.412	0.100
163.400	2.383	0.100
163.500	-29.408	0.100
163.600	-5.824	0.100
163.700	-8.541	0.100
163.800	-20.487	0.100
163.900	-28.448	0.100
164.000	-7.616	0.100
164.100	-12.648	0.100
164.200	-19.036	0.101
164.300	-9.922	0.101
164.400	-8.976	0.100
164.500	-14.837	0.101
164.600	-24.824	0.101
164.700	-5.788	0.101
164.800	-29.582	0.101
164.900	-13.082	0.101
165.000	-0.629	0.101
165.100	-11.259	0.101
165.200	-8.008	0.101
165.300	-13.011	0.101
165.400	-22.232	0.101
165.500	-13.838	0.101
165.600	-20.878	0.101
165.700	-14.146	0.101
165.800	-19.284	0.101
165.900	-13.932	0.101
166.000	-21.272	0.101
166.100	-3.582	0.101
166.200	-4.701	0.101
166.300	-15.210	0.101
166.400	-11.791	0.101
166.500	-4.974	0.101
166.600	-10.098	0.101
166.700	-12.207	0.101
166.800	-23.575	0.101
166.900	-17.413	0.101
167.000	-6.174	0.101
167.100	-21.440	0.101
167.200	-10.072	0.101
167.300	-28.565	0.101
167.400	-11.348	0.101
167.500	-21.124	0.101
167.600	-32.056	0.101
167.700	-11.273	0.101
167.800	-12.409	0.101
167.900	-12.438	0.101
168.000	7.244	0.101
168.100	-31.312	0.101
168.200	-20.428	0.101
168.300	-9.415	0.101
168.400	-19.223	0.101
168.500	-6.252	0.101
168.600	-8.917	0.101
168.700	-19.885	0.101
168.800	-15.473	0.101
168.900	-5.115	0.101
169.000	-6.466	0.101
169.100	-15.438	0.101
169.200	-3.657	0.101
169.300	-20.476	0.101
169.400	-31.696	0.101
169.500	-13.149	0.101
169.600	-20.177	0.101
169.700	-24.736	0.101
169.800	-21.924	0.101
169.900	-5.269	0.101
170.000	-6.971	0.101
170.100	-12.099	0.101
170.200	-9.036	0.101
170.300	4.995	0.101
170.400	-24.305	0.101
170.500	-23.775	0.101
170.600	-10.228	0.101
170.700	-18.074	0.101
170.800	-9.739	0.101
170.900	-19.949	0.101
171.000	-18.501	0.101
171.100	-6.789	0.101
171.200	-0.260	0.101
171.300	-11.073	0.101
171.400	-0.746	0.101
171.500	-16.072	0.101
171.600	-11.872	0.101
171.700	-2.390	0.101
171.800	-13.393	0.101
171.900	-6.370	0.101
172.000	-13.696	0.101
172.100	-11.024	0.101
172.200	-13.612	0.101
172.300	-10.977	0.101
172.400	-2.499	0.101
172.500	-19.082	0.101
172.600	-18.410	0.101
172.700	-4.914	0.101
172.800	-11.937	0.101
172.900	-10.714	0.101
173.000	-6.841	0.101
173.100	-1.436	0.101
173.200	-12.079	0.101
173.300	-15.791	0.101
173.400	-10.199	0.101
173.500	7.851	0.101
173.600	-16.967	0.101
173.700	-16.650	0.101
173.800	-6.092	0.101
173.900	-4.424	0.101
174.000	-22.298	0.101
174.100	-20.629	0.101
174.200	4.765	0.101
174.300	-10.078	0.101
174.400	-1.925	0.101
174.500	-8.965	0.101
174.600	-19.725	0.101
174.700	-6.569	0.101
174.800	-12.780	0.101
174.900	-0.722	0.101
175.000	-21.481	0.101
175.100	-8.183	0.101
175.200	4.802	0.101
175.300	-8.685	0.101
175.400	1.085	0.101
175.500	-22.111	0.101
175.600	-17.329	0.101
175.700	-9.495	0.101
175.800	-1.237	0.101
175.900	-11.338	0.101
176.000	-3.120	0.101
176.100	-23.893	0.101
176.200	-7.021	0.101
176.300	-10.129	0.101
176.400	-4.086	0.101
176.500	-10.385	0.101
176.600	-14.575	0.101
176.700	-13.745	0.101
176.800	-4.515	0.101
176.900	-9.125	0.101
177.000	-5.188	0.101
177.100	-10.195	0.101
177.200	-9.369	0.101
177.300	-11.735	0.101
177.400	-1.767	0.101
177.500	-0.211	0.101
177.600	-9.947	0.101
177.700	-7.616	0.101
177.800	-6.412	0.101
177.900	-7.520	0.101
178.000	-13.916	0.101
178.100	-17.943	0.101
178.200	-18.108	0.101
178.300	-12.583	0.101
178.400	-7.316	0.101
178.500	-8.568	0.101
178.600	-9.548	0.101
178.700	-5.499	0.101
178.800	-10.106	0.101
178.900	-17.076	0.101
179.000	-3.009	0.101
179.100	-0.857	0.101
179.200	-27.673	0.101
179.300	-11.715	0.101
179.400	-10.713	0.101
179.500	-8.954	0.101
179.600	-14.271	0.101
179.700	-11.123	0.101
179.800	-9.990	0.101
179.900	-11.423	0.101
180.000	-5.365	0.101
180.100	-15.868	0.101
180.200	-16.308	0.101
180.300	-13.859	0.101
180.400	-15.302	0.101
180.500	0.342	0.101
180.600	-9.222	0.101
180.700	-11.869	0.101
180.800	-9.348	0.101
180.900	-18.027	0.101
181.000	-19.637	0.101
181.100	-1.429	0.101
181.200	-0.464	0.101
181.300	-1.742	0.101
181.400	12.885	0.101
181.500	10.984	0.101
181.600	4.213	0.101
181.700	-2.204	0.101
181.800	3.180	0.101
181.900	5.013	0.101
182.000	-6.954	0.101
182.100	8.549	0.101
182.200	4.260	0.101
182.300	17.233	0.101
182.400	-0.275	0.101
182.500	4.533	0.101
182.600	11.147	0.101
182.700	11.296	0.101
182.800	0.696	0.101
182.900	13.338	0.101
183.000	8.450	0.101
183.100	17.457	0.101
183.200	22.207	0.101
183.300	2.245	0.101
183.400	-1.999	0.101
183.500	16.729	0.101
183.600	10.144	0.101
183.700	6.042	0.101
183.800	5.546	0.101
183.900	0.291	0.101
184.000	1.316	0.101
184.100	14.157	0.101
184.200	-8.150	0.101
184.300	-4.852	0.101
184.400	3.276	0.101
184.500	7.683	0.101
184.600	8.612	0.101
184.700	0.668	0.101
184.800	3.796	0.101
184.900	0.133	0.101
185.000	2.055	0.101
185.100	14.848	0.101
185.200	6.391	0.101
185.300	8.793	0.101
185.400	-3.852	0.101
185.500	5.780	0.101
185.600	-2.161	0.101
185.700	7.771	0.101
185.800	12.377	0.101
185.900	6.214	0.101
186.000	10.862	0.101
186.100	-1.868	0.101
186.200	-1.062	0.101
186.300	7.971	0.101
186.400	23.938	0.101
186.500	8.434	0.101
186.600	7.943	0.100
186.700	19.088	0.100
186.800	-4.841	0.100
186.900	-0.941	0.100
187.000	-2.002	0.100
187.100	8.660	0.101
187.200	8.922	0.100
187.300	2.393	0.100
187.400	6.409	0.101
187.500	-12.503	0.100
187.600	8.721	0.101
187.700	8.258	0.100
187.800	14.627	0.100
187.900	13.895	0.100
188.000	6.325	0.100
188.100	0.800	0.100
188.200	3.351	0.100
188.300	10.407	0.100
188.400	-4.574	0.100
188.500	5.760	0.101
188.600	17.842	0.101
188.700	12.334	0.101
188.800	1.044	0.100
188.900	8.160	0.101
189.000	6.543	0.100
189.100	12.476	0.100
189.200	0.259	0.100
189.300	1.528	0.100
189.400	7.456	0.100
189.500	6.916	0.100
189.600	9.076	0.101
189.700	4.601	0.100
189.800	2.542	0.100
189.900	28.763	0.100
190.000	11.766	0.100
190.100	6.169	0.100
190.200	11.060	0.100
190.300	2.025	0.100
190.400	13.611	0.100
190.500	19.770	0.100
190.600	9.328	0.100
190.700	11.749	0.100
190.800	19.160	0.100
190.900	41.729	0.100
191.000	3.266	0.100
191.100	1.554	0.100
191.200	12.435	0.100
191.300	21.933	0.100
191.400	9.965	0.100
191.500	40.664	0.100
191.600	-0.758	0.100
191.700	-0.432	0.100
191.800	12.284	0.100
191.900	12.901	0.101
192.000	20.217	0.101
192.100	14.278	0.100
192.200	16.376	0.101
192.300	7.225	0.100
192.400	16.142	0.100
192.500	8.178	0.101
192.600	19.326	0.100
192.700	11.202	0.100
192.800	7.489	0.100
192.900	26.123	0.100
193.000	6.849	0.100
193.100	27.576	0.100
193.200	18.547	0.100
193.300	11.709	0.100
193.400	4.190	0.100
193.500	24.773	0.100
193.600	13.719	0.100
193.700	28.541	0.100
193.800	3.697	0.100
193.900	7.224	0.100
194.000	16.872	0.100
194.100	20.118	0.100
194.200	16.258	0.100
194.300	34.911	0.100
194.400	23.796	0.100
194.500	27.119	0.100
194.600	12.722	0.100
194.700	14.099	0.100
194.800	17.352	0.101
194.900	20.562	0.101
195.000	21.496	0.100
195.100	26.102	0.100
195.200	12.875	0.100
195.300	27.670	0.100
195.400	16.596	0.101
195.500	6.761	0.100
195.600	19.124	0.101
195.700	26.585	0.101
195.800	25.284	0.100
195.900	20.890	0.101
196.000	16.307	0.100
196.100	8.695	0.100
196.200	3.268	0.100
196.300	21.235	0.100
196.400	30.956	0.100
196.500	14.640	0.100
196.600	35.292	0.100
196.700	9.701	0.100
196.800	10.680	0.101
196.900	7.089	0.100
197.000	23.614	0.100
197.100	16.091	0.100
197.200	17.174	0.100
197.300	20.347	0.100
197.400	23.213	0.100
197.500	19.053	0.100
197.600	28.776	0.100
197.700	21.108	0.100
197.800	32.098	0.101
197.900	11.661	0.100
198.000	14.010	0.100
198.100	25.495	0.100
198.200	26.029	0.100
198.300	19.356	0.100
198.400	30.568	0.101
198.500	16.210	0.100
198.600	9.847	0.100
198.700	14.763	0.100
198.800	17.476	0.101
198.900	19.765	0.100
199.000	17.178	0.101
199.100	35.124	0.100
199.200	21.032	0.100
199.300	13.458	0.100
199.400	22.416	0.100
199.500	26.591	0.100
199.600	24.436	0.100
199.700	33.755	0.100
199.800	20.492	0.100
199.900	15.904	0.100
200.000	19.602	0.100
200.100	29.872	0.100
200.200	25.931	0.100
200.300	19.620	0.100
200.400	25.965	0.100
200.500	28.626	0.100
200.600	16.004	0.100
200.700	30.203	0.100
200.800	11.467	0.100
200.900	25.476	0.100
201.000	17.875	0.100
201.100	15.810	0.100
201.200	27.864	0.100
201.300	33.900	0.100
201.400	20.246	0.100
201.500	21.369	0.100
201.600	21.839	0.100
201.700	20.432	0.100
201.800	14.687	0.100
201.900	38.301	0.100
202.000	21.321	0.100
202.100	25.105	0.100
202.200	10.105	0.100
202.300	37.984	0.100
202.400	29.529	0.100
202.500	19.971	0.100
202.600	31.331	0.100
202.700	32.554	0.100
202.800	23.830	0.100
202.900	23.958	0.101
203.000	23.047	0.101
203.100	30.934	0.100
203.200	30.765	0.101
203.300	33.987	0.100
203.400	25.632	0.100
203.500	20.218	0.100
203.600	29.490	0.101
203.700	17.102	0.101
203.800	17.350	0.101
203.900	31.206	0.100
204.000	25.671	0.100
204.100	32.919	0.100
204.200	34.426	0.100
204.300	22.369	0.100
204.400	28.315	0.101
204.500	10.948	0.101
204.600	29.174	0.100
204.700	27.194	0.100
204.800	31.013	0.101
204.900	33.174	0.101
205.000	32.147	0.100
205.100	14.193	0.101
205.200	28.825	0.101
205.300	31.550	0.100
205.400	39.034	0.100
205.500	17.156	0.101
205.600	28.720	0.100
205.700	24.458	0.100
205.800	26.207	0.100
205.900	42.761	0.100
206.000	19.778	0.100
206.100	36.169	0.100
206.200	29.969	0.101
206.300	25.695	0.100
206.400	24.266	0.100
206.500	16.624	0.100
206.600	20.061	0.101
206.700	32.619	0.100
206.800	26.930	0.101
206.900	21.657	0.101
207.000	26.571	0.100
207.100	30.817	0.100
207.200	11.196	0.100
207.300	42.236	0.100
207.400	28.148	0.100
207.500	36.577	0.101
207.600	25.229	0.100
207.700	44.331	0.100
207.800	13.811	0.100
207.900	19.846	0.100
208.000	39.382	0.100
208.100	27.633	0.101
208.200	35.495	0.100
208.300	31.837	0.101
208.400	30.591	0.101
208.500	29.567	0.100
208.600	26.887	0.101
208.700	28.558	0.101
208.800	22.606	0.100
208.900	21.934	0.101
209.000	29.746	0.100
209.100	35.446	0.100
209.200	30.171	0.101
209.300	30.980	0.100
209.400	45.247	0.100
209.500	42.297	0.101
209.600	23.867	0.100
209.700	30.608	0.100
209.800	19.441	0.100
209.900	14.145	0.101
210.000	33.364	0.100
210.100	38.516	0.100
210.200	32.258	0.101
210.300	16.972	0.100
210.400	22.911	0.101
210.500	43.230	0.100
210.600	26.595	0.100
210.700	28.401	0.100
210.800	42.977	0.101
210.900	27.721	0.100
211.000	23.217	0.101
211.100	26.172	0.100
211.200	43.984	0.101
211.300	34.447	0.100
211.400	31.062	0.101
211.500	27.878	0.101
211.600	27.888	0.101
211.700	26.778	0.100
211.800	42.637	0.100
211.900	32.453	0.101
212.000	28.821	0.100
212.100	29.873	0.101
212.200	36.097	0.100
212.300	43.748	0.100
212.400	15.406	0.100
212.500	30.938	0.101
212.600	34.579	0.100
212.700	31.325	0.101
212.800	26.257	0.101
212.900	31.805	0.100
213.000	40.057	0.100
213.100	27.490	0.101
213.200	29.273	0.100
213.300	18.752	0.101
213.400	27.338	0.100
213.500	32.450	0.101
213.600	29.771	0.101
213.700	32.866	0.100
213.800	32.003	0.100
213.900	34.181	0.100
214.000	31.819	0.100
214.100	27.051	0.101
214.200	24.636	0.100
214.300	24.790	0.101
214.400	31.038	0.100
214.500	30.575	0.100
214.600	28.749	0.100
214.700	26.255	0.100
214.800	22.930	0.100
214.900	42.683	0.101
215.000	39.356	0.100
215.100	28.496	0.100
215.200	29.535	0.100
215.300	44.187	0.100
215.400	37.879	0.100
215.500	25.080	0.100
215.600	30.860	0.100
215.700	11.563	0.100
215.800	36.899	0.100
215.900	17.311	0.100
216.000	47.563	0.100
216.100	33.014	0.100
216.200	30.856	0.101
216.300	31.217	0.100
216.400	35.701	0.100
216.500	26.680	0.100
216.600	35.048	0.101
216.700	32.700	0.100
216.800	22.088	0.100
216.900	29.462	0.101
217.000	20.977	0.100
217.100	36.511	0.100
217.200	28.861	0.101
217.300	28.332	0.100
217.400	29.121	0.100
217.500	46.683	0.101
217.600	37.757	0.100
217.700	34.829	0.100
217.800	27.737	0.100
217.900	27.320	0.100
218.000	32.936	0.100
218.100	40.172	0.100
218.200	20.519	0.101
218.300	29.715	0.100
218.400	28.651	0.100
218.500	38.755	0.101
218.600	26.434	0.100
218.700	14.893	0.100
218.800	48.625	0.100
218.900	38.892	0.100
219.000	25.240	0.100
219.100	22.795	0.100
219.200	21.038	0.100
219.300	33.674	0.101
219.400	35.540	0.100
219.500	48.515	0.100
219.600	28.053	0.100
219.700	41.609	0.100
219.800	21.358	0.100
219.900	27.320	0.100
220.000	38.605	0.100
220.100	25.351	0.100
220.200	29.194	0.100
220.300	27.746	0.100
220.400	42.052	0.100
220.500	35.426	0.100
220.600	42.858	0.101
220.700	36.549	0.101
220.800	31.160	0.100
220.900	34.248	0.100
221.000	31.353	0.101
221.100	16.839	0.100
221.200	28.633	0.100
221.300	35.977	0.100
221.400	17.950	0.100
221.500	34.699	0.100
221.600	33.537	0.100
221.700	35.161	0.100
221.800	34.493	0.100
221.900	32.734	0.101
222.000	35.032	0.101
222.100	26.046	0.100
222.200	42.962	0.100
222.300	17.532	0.101
222.400	37.577	0.100
222.500	30.016	0.100
222.600	39.441	0.100
222.700	40.148	0.100
222.800	29.886	0.100
222.900	37.293	0.100
223.000	25.659	0.100
223.100	37.884	0.101
223.200	27.255	0.101
223.300	41.159	0.101
223.400	34.611	0.101
223.500	32.479	0.100
223.600	33.138	0.100
223.700	42.871	0.101
223.800	11.299	0.101
223.900	34.399	0.100
224.000	27.402	0.100
224.100	36.388	0.100
224.200	21.929	0.100
224.300	34.565	0.100
224.400	33.839	0.101
224.500	27.282	0.100
224.600	23.604	0.100
224.700	36.056	0.100
224.800	22.815	0.100
224.900	45.441	0.100
225.000	25.590	0.101
225.100	26.580	0.101
225.200	30.181	0.101
225.300	22.893	0.100
225.400	32.850	0.100
225.500	33.375	0.100
225.600	31.011	0.100
225.700	36.881	0.100
225.800	26.776	0.100
225.900	19.376	0.100
226.000	37.637	0.100
226.100	39.869	0.100
226.200	28.464	0.100
226.300	28.137	0.100
226.400	26.731	0.100
226.500	35.884	0.100
226.600	31.873	0.100
226.700	29.071	0.101
226.800	41.140	0.101
226.900	24.578	0.101
227.000	27.652	0.101
227.100	24.733	0.100
227.200	25.748	0.101
227.300	14.408	0.100
227.400	36.293	0.100
227.500	27.610	0.101
227.600	29.386	0.100
227.700	37.304	0.101
227.800	27.872	0.100
227.900	34.551	0.101
228.000	37.373	0.100
228.100	26.726	0.100
228.200	41.397	0.100
228.300	25.241	0.100
228.400	38.989	0.100
228.500	21.520	0.101
228.600	41.009	0.100
228.700	25.703	0.101
228.800	39.120	0.101
228.900	31.580	0.100
229.000	27.852	0.100
229.100	26.076	0.100
229.200	21.121	0.100
229.300	39.466	0.101
229.400	35.950	0.100
229.500	20.751	0.101
229.600	35.791	0.101
229.700	28.875	0.101
229.800	39.834	0.101
229.900	20.243	0.101
230.000	20.965	0.100
230.100	31.186	0.100
230.200	27.103	0.101
230.300	26.642	0.101
230.400	36.066	0.101
230.500	49.300	0.100
230.600	21.179	0.101
230.700	52.085	0.101
230.800	39.198	0.100
230.900	31.930	0.101
231.000	36.473	0.101
231.100	35.140	0.100
231.200	33.622	0.101
231.300	34.222	0.101
231.400	32.511	0.100
231.500	25.989	0.100
231.600	13.445	0.101
231.700	33.554	0.101
231.800	37.463	0.100
231.900	36.424	0.101
232.000	22.487	0.101
232.100	39.696	0.101
232.200	34.307	0.101
232.300	28.032	0.100
232.400	38.056	0.101
232.500	39.443	0.100
232.600	29.760	0.101
232.700	20.741	0.100
232.800	25.276	0.100
232.900	28.215	0.101
233.000	27.566	0.100
233.100	29.861	0.101
233.200	22.278	0.101
233.300	45.623	0.101
233.400	30.486	0.100
233.500	26.159	0.101
233.600	39.243	0.100
233.700	35.922	0.100
233.800	18.735	0.100
233.900	47.304	0.100
234.000	39.157	0.100
234.100	48.131	0.100
234.200	36.504	0.100
234.300	19.800	0.100
234.400	21.964	0.100
234.500	33.600	0.101
234.600	26.303	0.100
234.700	30.089	0.100
234.800	34.703	0.100
234.900	37.011	0.101
235.000	41.640	0.100
235.100	22.738	0.100
235.200	37.440	0.100
235.300	52.695	0.100
235.400	20.542	0.101
235.500	35.359	0.100
235.600	32.210	0.100
235.700	29.249	0.100
235.800	23.691	0.100
235.900	39.924	0.100
236.000	21.843	0.100
236.100	35.367	0.101
236.200	37.107	0.100
236.300	26.423	0.100
236.400	23.245	0.100
236.500	21.007	0.101
236.600	36.511	0.101
236.700	28.264	0.100
236.800	42.962	0.101
236.900	29.683	0.101
237.000	25.796	0.101
237.100	28.709	0.100
237.200	36.174	0.101
237.300	24.932	0.100
237.400	32.206	0.100
237.500	45.861	0.100
237.600	32.531	0.100
237.700	26.711	0.101
237.800	33.749	0.101
237.900	32.110	0.101
238.000	32.553	0.100
238.100	33.174	0.101
238.200	24.139	0.100
238.300	18.395	0.101
238.400	37.338	0.100
238.500	28.272	0.100
238.600	31.939	0.101
238.700	25.965	0.100
238.800	23.716	0.101
238.900	36.626	0.100
239.000	39.715	0.101
239.100	31.113	0.101
239.200	36.919	0.101
239.300	41.598	0.100
239.400	25.632	0.101
239.500	31.836	0.101
239.600	40.056	0.100
239.700	40.823	0.101
239.800	30.279	0.101
239.900	30.631	0.101
240.000	24.626	0.100
240.100	21.701	0.100
240.200	24.830	0.100
240.300	34.855	0.101
240.400	16.784	0.100
240.500	37.961	0.100
240.600	27.671	0.101
240.700	18.258	0.100
240.800	12.653	0.100
240.900	27.829	0.100
241.000	12.399	0.100
241.100	19.269	0.100
241.200	21.017	0.100
241.300	4.802	0.100
241.400	21.829	0.100
241.500	13.213	0.100
241.600	16.244	0.101
241.700	15.688	0.101
241.800	7.939	0.101
241.900	14.562	0.101
242.000	16.783	0.100
242.100	7.387	0.101
242.200	-3.084	0.100
242.300	9.334	0.101
242.400	-25.281	0.100
242.500	-2.156	0.100
242.600	-4.618	0.101
242.700	4.531	0.100
242.800	-5.553	0.101
242.900	-13.575	0.100
243.000	-16.460	0.101
243.100	-0.943	0.101
243.200	-11.593	0.100
243.300	-16.327	0.101
243.400	-4.678	0.101
243.500	-4.351	0.101
243.600	-7.240	0.100
243.700	-17.932	0.101
243.800	-19.720	0.100
243.900	-11.567	0.100
244.000	-5.725	0.100
244.100	-16.606	0.100
244.200	-21.465	0.100
244.300	-13.092	0.100
244.400	-22.539	0.100
244.500	-17.746	0.100
244.600	-23.358	0.100
244.700	-2.336	0.100
244.800	-10.646	0.100
244.900	-12.578	0.100
245.000	-10.139	0.100
245.100	-16.240	0.101
245.200	-10.738	0.101
245.300	-19.824	0.101
245.400	-10.308	0.100
245.500	-16.566	0.101
245.600	-12.718	0.101
245.700	-22.567	0.101
245.800	-15.248	0.101
245.900	-6.211	0.101
246.000	-21.600	0.101
246.100	-8.015	0.100
246.200	-16.413	0.100
246.300	-32.296	0.100
246.400	-17.818	0.100
246.500	-25.862	0.100
246.600	-22.406	0.100
246.700	-22.093	0.100
246.800	-9.624	0.101
246.900	-13.911	0.100
247.000	-14.761	0.101
247.100	-24.711	0.100
247.200	-10.983	0.100
247.300	-32.084	0.101
247.400	-3.653	0.100
247.500	-33.031	0.100
247.600	-8.450	0.101
247.700	-20.819	0.101
247.800	-8.144	0.100
247.900	-27.250	0.101
248.000	-15.164	0.100
248.100	-27.467	0.100
248.200	-9.072	0.101
248.300	-18.676	0.101
248.400	-26.295	0.101
248.500	-34.069	0.100
248.600	-4.908	0.101
248.700	-19.561	0.100
248.800	-10.048	0.100
248.900	-23.538	0.101
249.000	-19.572	0.100
249.100	-14.329	0.100
249.200	-7.911	0.101
249.300	-19.249	0.100
249.400	-23.249	0.100
249.500	-15.369	0.101
249.600	-16.318	0.101
249.700	-26.242	0.100
249.800	-21.175	0.101
249.900	-15.644	0.101
250.000	-13.786	0.101
250.100	-21.079	0.101
250.200	-15.314	0.100
250.300	-27.572	0.100
250.400	-15.553	0.100
250.500	-23.307	0.101
250.600	-24.327	0.100
250.700	-25.728	0.101
250.800	0.261	0.100
250.900	-22.471	0.100
251.000	-9.183	0.100
251.100	-13.027	0.100
251.200	-38.438	0.100
251.300	-4.180	0.101
251.400	-9.316	0.101
251.500	-29.853	0.100
251.600	-33.247	0.101
251.700	-14.545	0.100
251.800	-10.974	0.100
251.900	-32.723	0.100
252.000	-19.579	0.100
252.100	-21.066	0.101
252.200	-23.948	0.101
252.300	-8.640	0.101
252.400	-23.971	0.100
252.500	-22.764	0.101
252.600	-34.048	0.100
252.700	-29.055	0.100
252.800	-12.434	0.101
252.900	-17.679	0.100
253.000	-16.979	0.100
253.100	-23.068	0.101
253.200	-30.974	0.100
253.300	-6.699	0.100
253.400	-29.925	0.101
253.500	-8.096	0.101
253.600	-23.551	0.101
253.700	-21.296	0.100
253.800	-21.469	0.101
253.900	-6.613	0.101
254.000	-34.395	0.101
254.100	-10.539	0.100
254.200	-16.167	0.100
254.300	-31.141	0.100
254.400	-23.539	0.101
254.500	-16.770	0.100
254.600	-20.990	0.100
254.700	-24.900	0.100
254.800	-23.955	0.100
254.900	-22.308	0.100
255.000	-27.371	0.100
255.100	-13.768	0.100
255.200	-33.996	0.100
255.300	-32.664	0.100
255.400	-8.199	0.101
255.500	-25.799	0.100
255.600	-21.134	0.101
255.700	-23.006	0.101
255.800	-8.589	0.100
255.900	-22.965	0.101
256.000	-17.935	0.101
256.100	-21.250	0.101
256.200	-22.974	0.101
256.300	-22.808	0.100
256.400	-25.519	0.100
256.500	-18.533	0.101
256.600	-12.528	0.101
256.700	-6.882	0.100
256.800	-26.538	0.101
256.900	-35.443	0.100
257.000	-21.725	0.100
257.100	-22.439	0.100
257.200	-24.130	0.100
257.300	-17.431	0.100
257.400	-20.058	0.101
257.500	-17.653	0.101
257.600	-20.947	0.100
257.700	-30.697	0.100
257.800	-31.055	0.100
257.900	-24.338	0.100
258.000	-7.614	0.100
258.100	-17.922	0.101
258.200	-22.611	0.100
258.300	-32.422	0.100
258.400	-19.831	0.100
258.500	-26.423	0.100
258.600	-22.627	0.100
258.700	-30.791	0.100
258.800	-9.633	0.100
258.900	-23.328	0.100
259.000	-24.054	0.100
259.100	-8.993	0.100
259.200	-28.770	0.100
259.300	-18.691	0.100
259.400	-14.943	0.100
259.500	-23.332	0.100
259.600	-12.792	0.100
259.700	-23.661	0.100
259.800	-17.603	0.100
259.900	-26.747	0.100
260.000	-14.347	0.100
260.100	-21.366	0.100
260.200	-13.301	0.100
260.300	-36.727	0.100
260.400	-26.815	0.101
260.500	-22.392	0.100
260.600	-5.367	0.100
260.700	-25.359	0.100
260.800	-29.829	0.100
260.900	-9.882	0.100
261.000	-22.930	0.100
261.100	-18.782	0.100
261.200	-25.371	0.100
261.300	-25.765	0.100
261.400	-16.922	0.100
261.500	-27.082	0.100
261.600	-19.677	0.100
261.700	-22.350	0.100
261.800	-27.467	0.100
261.900	-5.891	0.100
262.000	-22.871	0.100
262.100	-30.530	0.100
262.200	-18.565	0.100
262.300	-26.325	0.100
262.400	-21.039	0.100
262.500	-21.379	0.100
262.600	-28.012	0.100
262.700	-16.082	0.101
262.800	-12.452	0.100
262.900	-20.960	0.100
263.000	-35.131	0.100
263.100	-18.921	0.100
263.200	-25.818	0.100
263.300	-20.523	0.100
263.400	-14.510	0.100
263.500	-22.876	0.100
263.600	-14.792	0.100
263.700	-18.425	0.100
263.800	-18.648	0.100
263.900	-23.964	0.101
264.000	-21.949	0.100
264.100	-27.393	0.100
264.200	-14.029	0.100
264.300	-24.242	0.100
264.400	-5.264	0.101
264.500	-20.576	0.100
264.600	-13.659	0.100
264.700	-24.041	0.100
264.800	-23.396	0.100
264.900	-15.794	0.100
265.000	-40.063	0.100
265.100	-28.876	0.100
265.200	-26.314	0.101
265.300	-18.473	0.100
265.400	-12.608	0.100
265.500	-33.520	0.100
265.600	-21.413	0.100
265.700	-14.837	0.100
265.800	-19.393	0.100
265.900	-21.868	0.100
266.000	-15.516	0.100
266.100	-37.296	0.101
266.200	-9.135	0.100
266.300	-26.584	0.100
266.400	-30.760	0.100
266.500	-24.009	0.100
266.600	-25.427	0.100
266.700	-14.042	0.100
266.800	-25.569	0.100
266.900	-21.829	0.100
267.000	-10.848	0.100
267.100	-13.145	0.100
267.200	-21.235	0.100
267.300	-27.380	0.100
267.400	-23.027	0.100
267.500	-19.933	0.100
267.600	-27.038	0.100
267.700	-16.102	0.100
267.800	-16.928	0.101
267.900	-27.078	0.100
268.000	-24.629	0.100
268.100	-13.782	0.100
268.200	-15.821	0.100
268.300	-24.170	0.100
268.400	-25.061	0.100
268.500	-23.901	0.101
268.600	-24.040	0.100
268.700	-4.386	0.100
268.800	-24.104	0.100
268.900	-13.247	0.100
269.000	-31.320	0.100
269.100	-7.003	0.100
269.200	3.381	0.100
269.300	-26.823	0.100
269.400	-13.641	0.100
269.500	-20.846	0.100
269.600	-28.646	0.100
269.700	-24.000	0.100
269.800	-14.601	0.101
269.900	-10.439	0.100
270.000	-31.283	0.100
270.100	-20.838	0.100
270.200	-17.264	0.100
270.300	-19.619	0.100
270.400	-21.444	0.100
270.500	-24.991	0.100
270.600	-14.894	0.100
270.700	-20.560	0.101
270.800	-20.462	0.100
270.900	-14.680	0.100
271.000	-19.402	0.101
271.100	-32.771	0.100
271.200	-24.296	0.100
271.300	-21.495	0.101
271.400	-15.486	0.100
271.500	-5.390	0.100
271.600	-5.343	0.100
271.700	-28.114	0.101
271.800	-17.397	0.100
271.900	-24.146	0.100
272.000	-20.605	0.100
272.100	-23.254	0.100
272.200	-11.955	0.101
272.300	-24.554	0.100
272.400	-20.378	0.100
272.500	-15.106	0.100
272.600	-13.565	0.100
272.700	-23.133	0.100
272.800	-26.959	0.100
272.900	-18.410	0.100
273.000	-29.679	0.100
273.100	-10.847	0.100
273.200	-26.351	0.100
273.300	-17.053	0.100
273.400	-16.431	0.100
273.500	-11.755	0.100
273.600	-20.658	0.100
273.700	-8.984	0.100
273.800	-15.574	0.100
273.900	-11.202	0.100
274.000	-13.396	0.100
274.100	-18.436	0.100
274.200	-13.705	0.100
274.300	-22.673	0.100
274.400	-20.495	0.100
274.500	-25.647	0.100
274.600	-8.000	0.100
274.700	-11.136	0.100
274.800	-13.689	0.100
274.900	-26.468	0.100
275.000	-10.508	0.100
275.100	-15.705	0.100
275.200	-18.056	0.100
275.300	-17.112	0.100
275.400	-4.633	0.101
275.500	-31.253	0.100
275.600	-19.815	0.100
275.700	-27.507	0.100
275.800	-17.787	0.100
275.900	-19.255	0.100
276.000	-26.897	0.100
276.100	-3.787	0.100
276.200	-13.083	0.101
276.300	-26.618	0.100
276.400	-14.686	0.100
276.500	-17.819	0.100
276.600	-9.047	0.100
276.700	-21.521	0.101
276.800	-18.526	0.100
276.900	-16.258	0.100
277.000	-13.792	0.100
277.100	-12.469	0.100
277.200	-9.689	0.100
277.300	-19.494	0.101
277.400	-11.920	0.100
277.500	-28.055	0.100
277.600	-16.095	0.100
277.700	-26.293	0.100
277.800	-11.337	0.100
277.900	-14.030	0.100
278.000	-15.205	0.100
278.100	-19.375	0.100
278.200	-6.876	0.100
278.300	-9.118	0.101
278.400	-9.086	0.100
278.500	-20.068	0.100
278.600	-13.210	0.100
278.700	-16.733	0.100
278.800	-15.570	0.100
278.900	-30.399	0.100
279.000	-24.227	0.100
279.100	-19.700	0.100
279.200	-23.772	0.100
279.300	-26.202	0.100
279.400	-4.052	0.101
279.500	-14.634	0.100
279.600	-25.869	0.100
279.700	-18.753	0.100
279.800	-23.254	0.100
279.900	-28.071	0.100
280.000	-2.423	0.100
280.100	-23.633	0.100
280.200	-14.637	0.100
280.300	-15.582	0.100
280.400	-8.051	0.100
280.500	-17.511	0.100
280.600	-12.382	0.100
280.700	-11.576	0.100
280.800	-23.582	0.100
280.900	-31.370	0.100
281.000	-9.628	0.100
281.100	-18.505	0.100
281.200	-17.938	0.100
281.300	-18.831	0.100
281.400	-4.525	0.100
281.500	-22.087	0.100
281.600	1.368	0.100
281.700	-1.543	0.100
281.800	-30.512	0.100
281.900	-11.442	0.100
282.000	-24.079	0.100
282.100	-9.604	0.100
282.200	-16.836	0.100
282.300	-13.359	0.100
282.400	-1.070	0.100
282.500	-15.802	0.100
282.600	-24.348	0.100
282.700	-10.606	0.100
282.800	-13.268	0.100
282.900	-0.791	0.100
283.000	-20.774	0.100
283.100	-19.603	0.100
283.200	-26.030	0.100
283.300	-25.693	0.100
283.400	-14.786	0.100
283.500	-17.104	0.100
283.600	-22.898	0.100
283.700	-8.131	0.100
283.800	-7.104	0.100
283.900	-19.792	0.100
284.000	-25.464	0.100
284.100	-11.280	0.100
284.200	-20.741	0.100
284.300	-15.684	0.100
284.400	-5.980	0.100
284.500	-13.699	0.100
284.600	-9.169	0.100
284.700	-23.999	0.100
284.800	-13.033	0.100
284.900	-26.329	0.100
285.000	-12.254	0.100
285.100	-18.301	0.100
285.200	-12.507	0.100
285.300	-0.041	0.100
285.400	-13.146	0.100
285.500	-30.836	0.100
285.600	-13.911	0.100
285.700	-6.681	0.100
285.800	-6.324	0.100
285.900	-25.096	0.100
286.000	-11.561	0.100
286.100	-25.919	0.100
286.200	-13.938	0.100
286.300	-10.573	0.100
286.400	-22.210	0.100
286.500	-4.169	0.100
286.600	-17.155	0.100
286.700	-20.619	0.100
286.800	-15.131	0.100
286.900	-12.507	0.100
287.000	-22.336	0.100
287.100	-5.213	0.100
287.200	-20.610	0.100
287.300	-25.934	0.100
287.400	-4.436	0.100
287.500	-25.885	0.100
287.600	-14.976	0.100
287.700	-3.927	0.100
287.800	-17.345	0.100
287.900	-13.775	0.100
288.000	-12.458	0.100
288.100	-12.007	0.100
288.200	-20.987	0.100
288.300	-14.490	0.100
288.400	3.593	0.100
288.500	-31.287	0.100
288.600	-5.423	0.100
288.700	-38.116	0.100
288.800	-21.207	0.100
288.900	-20.556	0.100
289.000	-8.722	0.100
289.100	-13.766	0.100
289.200	-17.455	0.100
289.300	-22.790	0.100
289.400	-22.638	0.100
289.500	-13.178	0.100
289.600	-8.681	0.100
289.700	-16.914	0.101
289.800	-19.348	0.100
289.900	-14.267	0.100
290.000	-20.704	0.100
290.100	-11.887	0.100
290.200	-25.155	0.100
290.300	-20.229	0.100
290.400	-19.507	0.100
290.500	-9.756	0.100
290.600	-16.406	0.100
290.700	-20.338	0.100
290.800	-21.194	0.100
290.900	-16.922	0.100
291.000	-6.204	0.100
291.100	-13.245	0.100
291.200	-14.811	0.100
291.300	-14.416	0.100
291.400	-15.333	0.100
291.500	-4.485	0.100
291.600	-16.665	0.100
291.700	-28.658	0.100
291.800	8.262	0.101
291.900	-27.379	0.100
292.000	-9.873	0.100
292.100	-14.238	0.100
292.200	-25.426	0.100
292.300	-15.826	0.100
292.400	-12.869	0.100
292.500	-22.375	0.100
292.600	1.090	0.100
292.700	-22.693	0.100
292.800	-12.643	0.100
292.900	-15.324	0.100
293.000	-21.504	0.100
293.100	-13.715	0.100
293.200	-13.921	0.100
293.300	-18.721	0.100
293.400	-3.872	0.100
293.500	-11.084	0.100
293.600	-24.352	0.100
293.700	-13.355	0.100
293.800	-27.448	0.100
293.900	0.511	0.100
294.000	-16.852	0.100
294.100	-12.752	0.100
294.200	-6.780	0.100
294.300	-16.492	0.100
294.400	-20.432	0.100
294.500	-35.466	0.100
294.600	-10.192	0.100
294.700	-16.625	0.100
294.800	-2.916	0.100
294.900	-9.420	0.100
295.000	-14.464	0.100
295.100	-28.437	0.100
295.200	-17.406	0.100
295.300	-12.355	0.100
295.400	-16.809	0.100
295.500	-1.206	0.100
295.600	-18.097	0.100
295.700	-19.577	0.100
295.800	-20.818	0.100
295.900	1.643	0.100
296.000	-14.765	0.100
296.100	-12.247	0.100
296.200	-9.072	0.100
296.300	-10.742	0.100
296.400	-27.399	0.100
296.500	-14.310	0.100
296.600	-18.631	0.100
296.700	-9.103	0.100
296.800	-17.143	0.100
296.900	-9.882	0.100
297.000	-26.699	0.100
297.100	-11.649	0.100
297.200	-22.323	0.100
297.300	-13.525	0.100
297.400	-21.471	0.100
297.500	-26.646	0.100
297.600	-21.820	0.100
297.700	-10.511	0.100
297.800	-14.529	0.100
297.900	-20.117	0.100
298.000	-15.017	0.100
298.100	-9.419	0.100
298.200	-18.928	0.100
298.300	-19.253	0.100
298.400	-22.401	0.100
298.500	-10.793	0.101
298.600	-20.504	0.100
298.700	-8.852	0.100
298.800	-19.370	0.100
298.900	-21.089	0.100
299.000	-9.767	0.100
299.100	-0.448	0.100
299.200	-10.962	0.100
299.300	-30.954	0.100
299.400	-17.590	0.101
299.500	-8.609	0.100
299.600	-24.741	0.100
299.700	-17.819	0.100
299.800	-11.646	0.100
299.900	-22.453	0.100
300.000	1.757	0.100
300.100	-14.687	0.100
300.200	-7.318	0.100
300.300	-15.905	0.100
300.400	-12.514	0.100
300.500	-8.970	0.100
300.600	-15.710	0.100
300.700	-15.327	0.100
300.800	-4.621	0.100
300.900	-7.681	0.100
301.000	-11.688	0.100
301.100	-31.565	0.100
301.200	-3.287	0.100
301.300	-9.659	0.101
301.400	-10.289	0.100
301.500	-6.441	0.100
301.600	-5.538	0.100
301.700	-22.438	0.100
301.800	-10.784	0.100
301.900	-30.514	0.100
302.000	-18.950	0.100
302.100	-4.009	0.100
302.200	-29.977	0.100
302.300	-7.223	0.100
302.400	-13.382	0.100
302.500	-23.721	0.100
302.600	-16.429	0.100
302.700	-2.142	0.100
302.800	-17.884	0.100
302.900	-16.227	0.100
303.000	-10.797	0.100
303.100	-22.369	0.100
303.200	-13.311	0.100
303.300	-3.931	0.100
303.400	-11.358	0.100
303.500	-10.084	0.100
303.600	-7.323	0.100
303.700	-14.313	0.100
303.800	-12.024	0.100
303.900	-15.294	0.100
304.000	-15.861	0.100
304.100	-22.018	0.100
304.200	-25.997	0.100
304.300	-7.270	0.100
304.400	-11.713	0.100
304.500	-16.361	0.100
304.600	-22.701	0.100
304.700	-12.877	0.100
304.800	-7.380	0.100
304.900	-15.555	0.100
305.000	-22.543	0.100
305.100	-5.319	0.100
305.200	-0.006	0.100
305.300	-12.400	0.100
305.400	-3.896	0.100
305.500	-25.268	0.100
305.600	-27.192	0.100
305.700	-20.765	0.100
305.800	-7.801	0.100
305.900	-26.089	0.100
306.000	-7.269	0.100
306.100	-9.705	0.100
306.200	-11.319	0.100
306.300	-3.009	0.100
306.400	-14.403	0.101
306.500	-8.078	0.100
306.600	-11.488	0.100
306.700	-15.881	0.100
306.800	-15.303	0.100
306.900	-16.135	0.100
307.000	-24.176	0.100
307.100	-18.467	0.100
307.200	-21.371	0.100
307.300	-20.177	0.100
307.400	-11.443	0.100
307.500	-14.207	0.100
307.600	-20.726	0.100
307.700	-24.138	0.100
307.800	-17.790	0.100
307.900	-21.867	0.100
308.000	-14.829	0.100
308.100	-8.250	0.100
308.200	-7.901	0.100
308.300	-14.601	0.100
308.400	-3.626	0.100
308.500	-11.471	0.100
308.600	-11.708	0.100
308.700	-21.478	0.100
308.800	-9.024	0.100
308.900	-18.793	0.100
309.000	-19.022	0.100
309.100	-26.176	0.100
309.200	-15.101	0.100
309.300	-7.221	0.100
309.400	-12.148	0.100
309.500	-26.173	0.100
309.600	-11.215	0.100
309.700	-4.998	0.100
309.800	-22.491	0.100
309.900	-14.896	0.100
310.000	-14.620	0.100
310.100	-4.864	0.100
310.200	-15.793	0.100
310.300	-2.423	0.100
310.400	-16.031	0.100
310.500	-11.022	0.100
310.600	-15.349	0.100
310.700	-8.604	0.100
310.800	-14.926	0.100
310.900	-13.249	0.100
311.000	-9.619	0.100
311.100	-8.318	0.100
311.200	-13.344	0.100
311.300	-7.931	0.100
311.400	-8.264	0.101
311.500	-9.901	0.100
311.600	-22.034	0.100
311.700	-8.995	0.100
311.800	-5.606	0.100
311.900	-10.362	0.100
312.000	-15.439	0.100
312.100	-30.691	0.100
312.200	-16.209	0.100
312.300	-19.085	0.100
312.400	-17.197	0.100
312.500	-13.765	0.100
312.600	-12.367	0.100
312.700	-8.216	0.100
312.800	-17.510	0.100
312.900	-7.783	0.100
313.000	-18.688	0.100
313.100	4.051	0.100
313.200	-9.193	0.100
313.300	-18.003	0.100
313.400	-16.744	0.100
313.500	-26.232	0.100
313.600	-14.839	0.100
313.700	-22.955	0.100
313.800	-13.267	0.100
313.900	-4.038	0.100
314.000	-23.448	0.100
314.100	-8.085	0.100
314.200	-20.006	0.100
314.300	-13.576	0.100
314.400	-7.855	0.100
314.500	-17.914	0.100
314.600	-18.255	0.100
314.700	-17.857	0.100
314.800	-8.137	0.100
314.900	-11.745	0.100
315.000	-12.012	0.100
315.100	-17.870	0.100
315.200	-1.513	0.100
315.300	-11.650	0.100
315.400	-6.659	0.100
315.500	-8.368	0.100
315.600	-23.018	0.100
315.700	-7.831	0.100
315.800	-16.363	0.100
315.900	-13.608	0.100
316.000	-26.652	0.100
316.100	-8.457	0.100
316.200	-15.222	0.100
316.300	-14.825	0.100
316.400	-8.022	0.100
316.500	-14.548	0.100
316.600	-19.253	0.100
316.700	-10.117	0.100
316.800	-3.753	0.100
316.900	-22.299	0.100
317.000	-20.294	0.100
317.100	-23.733	0.100
317.200	-10.945	0.100
317.300	-7.409	0.100
317.400	-13.636	0.100
317.500	-8.656	0.100
317.600	-17.803	0.100
317.700	-6.984	0.100
317.800	-13.429	0.100
317.900	-6.361	0.100
318.000	-5.423	0.100
318.100	-10.261	0.100
318.200	-12.541	0.100
318.300	-13.695	0.100
318.400	-28.399	0.100
318.500	-14.772	0.100
318.600	-23.071	0.100
318.700	-10.093	0.100
318.800	-10.201	0.100
318.900	-14.428	0.100
319.000	-21.670	0.100
319.100	-14.677	0.100
319.200	-12.978	0.100
319.300	-18.936	0.100
319.400	-17.261	0.100
319.500	0.424	0.100
319.600	-8.944	0.100
319.700	-15.035	0.100
319.800	-16.629	0.100
319.900	-10.938	0.100
320.000	-22.446	0.100
320.100	-18.074	0.100
320.200	-7.343	0.100
320.300	-16.289	0.100
320.400	-19.513	0.100
320.500	-9.796	0.100
320.600	-17.370	0.100
320.700	-5.668	0.100
320.800	-10.768	0.100
320.900	-18.716	0.100
321.000	-15.358	0.100
321.100	-10.079	0.100
321.200	-12.966	0.100
321.300	-10.184	0.100
321.400	-18.276	0.100
321.500	-8.620	0.100
321.600	-14.165	0.100
321.700	-2.625	0.100
321.800	-23.219	0.100
321.900	-9.611	0.100
322.000	-23.941	0.100
322.100	-19.010	0.100
322.200	-15.181	0.100
322.300	-13.137	0.100
322.400	-6.487	0.100
322.500	-13.014	0.100
322.600	-20.781	0.100
322.700	-10.765	0.100
322.800	-28.187	0.100
322.900	-21.929	0.100
323.000	2.590	0.100
323.100	-25.376	0.100
323.200	-19.603	0.100
323.300	-7.208	0.100
323.400	-16.929	0.100
323.500	-9.405	0.100
323.600	-8.352	0.100
323.700	-5.573	0.100
323.800	-4.399	0.100
323.900	-21.864	0.100
324.000	-4.033	0.100
324.100	-9.098	0.100
324.200	-3.629	0.100
324.300	-17.406	0.100
324.400	-15.306	0.100
324.500	-18.982	0.100
324.600	-18.977	0.100
324.700	-12.503	0.100
324.800	-7.491	0.100
324.900	-17.808	0.100
325.000	-13.441	0.100
325.100	3.920	0.100
325.200	-13.895	0.100
325.300	-7.103	0.100
325.400	-1.876	0.100
325.500	-29.516	0.100
325.600	-16.579	0.100
325.700	-21.017	0.100
325.800	-4.019	0.100
325.900	-4.898	0.100
326.000	-6.084	0.100
326.100	-23.026	0.100
326.200	-0.642	0.100
326.300	-13.858	0.100
326.400	-10.459	0.100
326.500	-15.398	0.100
326.600	-10.682	0.100
326.700	-16.208	0.100
326.800	-2.252	0.100
326.900	-7.414	0.100
327.000	-22.756	0.100
327.100	-23.417	0.100
327.200	-10.422	0.100
327.300	-7.831	0.100
327.400	-14.253	0.100
327.500	-14.864	0.100
327.600	-10.252	0.100
327.700	-17.263	0.100
327.800	-17.112	0.100
327.900	-15.838	0.100
328.000	-13.938	0.100
328.100	-17.656	0.100
328.200	-16.001	0.100
328.300	-16.596	0.100
328.400	-18.072	0.100
328.500	-18.282	0.100
328.600	-10.290	0.100
328.700	-9.416	0.100
328.800	-25.082	0.100
328.900	-14.392	0.100
329.000	-32.686	0.100
329.100	-1.683	0.100
329.200	-15.580	0.100
329.300	0.561	0.100
329.400	-14.195	0.100
329.500	-27.101	0.100
329.600	-18.540	0.100
329.700	-14.122	0.100
329.800	-5.603	0.100
329.900	-24.993	0.100
330.000	-15.502	0.100
330.100	-5.619	0.100
330.200	-14.990	0.100
330.300	-2.330	0.100
330.400	-15.124	0.100
330.500	0.322	0.100
330.600	-20.178	0.100
330.700	-4.643	0.100
330.800	-4.479	0.100
330.900	2.621	0.101
331.000	-16.965	0.100
331.100	-5.819	0.100
331.200	-4.353	0.100
331.300	2.613	0.100
331.400	-0.658	0.100
331.500	3.123	0.100
331.600	7.421	0.101
331.700	-0.788	0.100
331.800	5.642	0.100
331.900	-2.763	0.100
332.000	4.084	0.100
332.100	9.702	0.100
332.200	13.234	0.100
332.300	-0.325	0.100
332.400	4.819	0.100
332.500	-8.670	0.100
332.600	-2.442	0.100
332.700	-5.052	0.100
332.800	-4.104	0.100
332.900	9.517	0.100
333.000	-2.087	0.100
333.100	12.695	0.100
333.200	2.601	0.100
333.300	10.720	0.100
333.400	6.463	0.100
333.500	5.009	0.100
333.600	4.767	0.100
333.700	11.815	0.100
333.800	4.827	0.100
333.900	9.178	0.100
334.000	13.533	0.101
334.100	-1.368	0.100
334.200	1.138	0.100
334.300	-1.367	0.100
334.400	13.085	0.100
334.500	14.729	0.100
334.600	1.505	0.100
334.700	20.832	0.100
334.800	1.339	0.100
334.900	2.966	0.100
335.000	-9.616	0.100
335.100	10.661	0.100
335.200	4.438	0.100
335.300	4.833	0.100
335.400	18.335	0.100
335.500	6.774	0.100
335.600	-5.853	0.100
335.700	-3.996	0.100
335.800	6.558	0.100
335.900	5.859	0.100
336.000	13.147	0.100
336.100	3.090	0.100
336.200	8.616	0.100
336.300	4.266	0.100
336.400	-0.752	0.100
336.500	6.054	0.100
336.600	5.625	0.100
336.700	-1.650	0.100
336.800	6.911	0.100
336.900	4.839	0.100
337.000	0.427	0.100
337.100	6.277	0.100
337.200	6.413	0.100
337.300	-2.180	0.100
337.400	3.780	0.100
337.500	-2.201	0.100
337.600	21.277	0.100
337.700	6.992	0.100
337.800	15.109	0.100
337.900	5.193	0.100
338.000	23.507	0.100
338.100	6.081	0.100
338.200	2.651	0.100
338.300	1.563	0.100
338.400	14.291	0.100
338.500	9.883	0.100
338.600	-7.112	0.100
338.700	7.693	0.100
338.800	-2.105	0.100
338.900	16.374	0.100
339.000	17.092	0.100
339.100	3.767	0.100
339.200	15.946	0.100
339.300	16.602	0.100
339.400	3.931	0.100
339.500	11.451	0.100
339.600	-1.632	0.100
339.700	3.927	0.100
339.800	6.181	0.100
339.900	7.639	0.100
340.000	16.434	0.100
340.100	-4.397	0.100
340.200	17.712	0.100
340.300	4.067	0.100
340.400	21.350	0.100
340.500	25.866	0.100
340.600	19.213	0.100
340.700	10.608	0.100
340.800	19.710	0.100
340.900	6.754	0.100
341.000	21.237	0.100
341.100	6.202	0.100
341.200	10.506	0.100
341.300	11.844	0.100
341.400	17.399	0.100
341.500	1.825	0.100
341.600	7.373	0.100
341.700	16.871	0.100
341.800	20.403	0.100
341.900	20.288	0.100
342.000	14.626	0.100
342.100	18.672	0.100
342.200	18.769	0.100
342.300	10.752	0.100
342.400	23.048	0.100
342.500	18.497	0.100
342.600	-0.756	0.100
342.700	8.637	0.100
342.800	8.895	0.100
342.900	5.584	0.100
343.000	15.534	0.100
343.100	19.029	0.100
343.200	15.343	0.100
343.300	20.778	0.100
343.400	0.096	0.100
343.500	13.551	0.100
343.600	27.491	0.100
343.700	22.125	0.100
343.800	16.330	0.100
343.900	8.877	0.100
344.000	14.779	0.100
344.100	9.605	0.100
344.200	10.680	0.100
344.300	22.046	0.100
344.400	27.506	0.100
344.500	12.177	0.100
344.600	18.304	0.100
344.700	17.512	0.100
344.800	11.674	0.100
344.900	27.055	0.100
345.000	17.365	0.100
345.100	16.545	0.100
345.200	26.539	0.100
345.300	17.756	0.100
345.400	26.523	0.100
345.500	20.230	0.100
345.600	17.200	0.100
345.700	13.865	0.100
345.800	20.390	0.100
345.900	26.098	0.100
346.000	20.306	0.100
346.100	12.753	0.100
346.200	22.330	0.100
346.300	21.735	0.100
346.400	23.219	0.100
346.500	20.526	0.100
346.600	24.732	0.100
346.700	25.771	0.100
346.800	18.395	0.100
346.900	21.128	0.100
347.000	22.645	0.100
347.100	30.292	0.100
347.200	24.961	0.100
347.300	13.796	0.100
347.400	21.723	0.100
347.500	30.614	0.100
347.600	27.406	0.100
347.700	15.369	0.101
347.800	16.194	0.100
347.900	27.939	0.100
348.000	19.084	0.100
348.100	31.687	0.100
348.200	25.077	0.100
348.300	17.654	0.100
348.400	25.932	0.100
348.500	21.763	0.100
348.600	13.572	0.100
348.700	21.485	0.100
348.800	21.342	0.100
348.900	22.289	0.100
349.000	30.553	0.100
349.100	15.653	0.100
349.200	26.185	0.100
349.300	11.148	0.100
349.400	33.323	0.100
349.500	18.682	0.100
349.600	18.185	0.100
349.700	18.476	0.100
349.800	11.109	0.100
349.900	24.352	0.100
350.000	25.742	0.100
350.100	19.887	0.100
350.200	36.501	0.100
350.300	23.340	0.100
350.400	20.628	0.100
350.500	26.653	0.100
350.600	27.866	0.100
350.700	27.388	0.100
350.800	22.380	0.100
350.900	31.153	0.100
351.000	19.590	0.100
351.100	32.383	0.100
351.200	31.148	0.100
351.300	30.957	0.100
351.400	30.696	0.100
351.500	29.309	0.100
351.600	14.693	0.100
351.700	20.456	0.101
351.800	24.239	0.100
351.900	31.687	0.100
352.000	21.543	0.100
352.100	29.478	0.100
352.200	20.606	0.100
352.300	25.365	0.100
352.400	23.323	0.100
352.500	28.758	0.100
352.600	27.712	0.100
352.700	16.170	0.100
352.800	38.603	0.100
352.900	8.324	0.100
353.000	26.687	0.100
353.100	31.587	0.100
353.200	22.933	0.100
353.300	21.119	0.100
353.400	27.989	0.100
353.500	24.923	0.100
353.600	22.923	0.100
353.700	48.832	0.100
353.800	9.269	0.100
353.900	27.726	0.100
354.000	23.941	0.100
354.100	22.201	0.100
354.200	19.864	0.100
354.300	24.737	0.100
354.400	21.948	0.100
354.500	28.072	0.100
354.600	29.970	0.100
354.700	26.028	0.100
354.800	28.516	0.100
354.900	41.835	0.100
355.000	25.653	0.100
355.100	23.282	0.100
355.200	23.361	0.100
355.300	28.682	0.100
355.400	34.823	0.100
355.500	28.161	0.100
355.600	30.450	0.100
355.700	22.734	0.100
355.800	14.826	0.100
355.900	33.970	0.100
356.000	29.174	0.100
356.100	34.703	0.100
356.200	20.530	0.100
356.300	29.641	0.100
356.400	37.053	0.100
356.500	32.442	0.101
356.600	29.984	0.100
356.700	12.750	0.100
356.800	22.213	0.100
356.900	25.252	0.100
357.000	35.240	0.100
357.100	35.477	0.100
357.200	31.373	0.100
357.300	41.570	0.100
357.400	17.985	0.100
357.500	21.849	0.100
357.600	31.420	0.100
357.700	30.912	0.100
357.800	32.800	0.100
357.900	36.851	0.100
358.000	21.535	0.100
358.100	40.002	0.100
358.200	18.536	0.100
358.300	29.363	0.100
358.400	25.735	0.100
358.500	36.018	0.100
358.600	27.089	0.100
358.700	36.674	0.100
358.800	27.131	0.100
358.900	30.021	0.100
359.000	42.168	0.100
359.100	28.971	0.100
359.200	29.110	0.100
359.300	43.401	0.100
359.400	26.722	0.100
359.500	23.420	0.100
359.600	31.792	0.100
359.700	28.787	0.100
359.800	26.197	0.100
359.900	32.711	0.100
360.000	24.359	0.100
360.100	33.999	0.100
360.200	32.259	0.100
360.300	26.953	0.100
360.400	37.159	0.100
360.500	34.709	0.100
360.600	22.056	0.100
360.700	37.893	0.100
360.800	27.023	0.100
360.900	27.468	0.100
361.000	39.790	0.100
361.100	17.262	0.100
361.200	15.398	0.100
361.300	37.148	0.100
361.400	24.640	0.100
361.500	35.535	0.100
361.600	27.278	0.100
361.700	30.900	0.100
361.800	29.300	0.100
361.900	36.091	0.100
362.000	28.271	0.100
362.100	26.161	0.100
362.200	39.437	0.100
362.300	23.869	0.100
362.400	25.214	0.100
362.500	38.016	0.100
362.600	28.450	0.100
362.700	35.331	0.100
362.800	19.831	0.100
362.900	26.528	0.100
363.000	38.004	0.100
363.100	26.788	0.100
363.200	38.403	0.100
363.300	12.681	0.100
363.400	28.948	0.100
363.500	31.210	0.100
363.600	32.032	0.100
363.700	31.593	0.100
363.800	35.439	0.100
363.900	25.490	0.100
364.000	30.118	0.100
364.100	27.356	0.100
364.200	32.866	0.100
364.300	40.101	0.100
364.400	32.119	0.100
364.500	30.649	0.100
364.600	34.187	0.100
364.700	43.559	0.100
364.800	36.817	0.100
364.900	23.306	0.100
365.000	30.933	0.100
365.100	20.902	0.100
365.200	12.329	0.100
365.300	26.468	0.100
365.400	37.230	0.100
365.500	33.042	0.100
365.600	37.650	0.100
365.700	32.452	0.100
365.800	24.987	0.100
365.900	31.825	0.100
366.000	33.745	0.100
366.100	41.497	0.100
366.200	17.441	0.100
366.300	25.280	0.100
366.400	45.102	0.100
366.500	32.197	0.100
366.600	40.906	0.100
366.700	27.407	0.100
366.800	26.722	0.100
366.900	44.459	0.100
367.000	41.362	0.100
367.100	36.756	0.100
367.200	37.042	0.100
367.300	32.629	0.100
367.400	27.950	0.100
367.500	30.870	0.100
367.600	26.211	0.100
367.700	47.482	0.100
367.800	27.205	0.100
367.900	28.582	0.100
368.000	43.954	0.100
368.100	33.197	0.100
368.200	26.682	0.100
368.300	34.120	0.100
368.400	39.820	0.100
368.500	40.537	0.100
368.600	16.584	0.100
368.700	37.101	0.100
368.800	29.075	0.100
368.900	39.020	0.100
369.000	37.713	0.100
369.100	33.954	0.100
369.200	39.387	0.100
369.300	20.765	0.100
369.400	33.542	0.100
369.500	47.613	0.100
369.600	34.273	0.100
369.700	23.850	0.100
369.800	23.717	0.100
369.900	45.581	0.100
370.000	25.356	0.100
370.100	21.231	0.100
370.200	42.364	0.100
370.300	32.481	0.100
370.400	31.436	0.100
370.500	30.667	0.100
370.600	37.505	0.100
370.700	30.430	0.100
370.800	30.984	0.100
370.900	39.363	0.100
371.000	23.316	0.100
371.100	31.686	0.100
371.200	38.422	0.100
371.300	22.551	0.100
371.400	31.201	0.100
371.500	40.155	0.100
371.600	35.836	0.100
371.700	23.785	0.100
371.800	38.715	0.100
371.900	17.431	0.100
372.000	34.017	0.100
372.100	38.898	0.100
372.200	25.659	0.100
372.300	27.230	0.100
372.400	43.543	0.100
372.500	28.562	0.100
372.600	40.193	0.100
372.700	24.579	0.100
372.800	24.976	0.100
372.900	46.989	0.100
373.000	34.827	0.100
373.100	30.296	0.100
373.200	25.743	0.100
373.300	30.646	0.100
373.400	48.121	0.100
373.500	29.855	0.100
373.600	27.071	0.100
373.700	39.243	0.100
373.800	34.985	0.100
373.900	26.553	0.100
374.000	29.623	0.100
374.100	32.724	0.100
374.200	36.917	0.100
374.300	38.176	0.100
374.400	30.421	0.100
374.500	34.417	0.100
374.600	37.860	0.100
374.700	38.086	0.100
374.800	24.558	0.100
374.900	26.944	0.100
375.000	39.998	0.100
375.100	38.351	0.100
375.200	34.256	0.100
375.300	37.695	0.100
375.400	30.733	0.100
375.500	34.283	0.100
375.600	26.630	0.100
375.700	26.422	0.100
375.800	40.962	0.100
375.900	26.230	0.100
376.000	36.289	0.100
376.100	27.563	0.100
376.200	23.358	0.100
376.300	31.788	0.100
376.400	24.344	0.100
376.500	25.938	0.100
376.600	34.614	0.100
376.700	17.197	0.100
376.800	38.928	0.100
376.900	22.459	0.100
377.000	35.816	0.100
377.100	32.429	0.100
377.200	35.297	0.100
377.300	37.487	0.100
377.400	28.536	0.100
377.500	21.981	0.100
377.600	34.869	0.100
377.700	25.790	0.100
377.800	47.435	0.100
377.900	28.204	0.100
378.000	28.177	0.100
378.100	37.581	0.100
378.200	34.066	0.100
378.300	16.872	0.100
378.400	25.568	0.100
378.500	28.646	0.100
378.600	41.596	0.100
378.700	25.278	0.100
378.800	36.203	0.100
378.900	19.168	0.100
379.000	43.768	0.100
379.100	35.804	0.100
379.200	21.148	0.100
379.300	34.814	0.100
379.400	32.102	0.100
379.500	36.291	0.100
379.600	26.186	0.100
379.700	35.632	0.100
379.800	28.997	0.100
379.900	38.806	0.100
380.000	38.484	0.100
380.100	18.140	0.100
380.200	39.275	0.100
380.300	42.801	0.100
380.400	32.108	0.100
380.500	26.525	0.101
380.600	24.687	0.100
380.700	44.995	0.100
380.800	38.922	0.100
380.900	42.027	0.100
381.000	36.592	0.100
381.100	24.339	0.100
381.200	32.912	0.100
381.300	25.851	0.100
381.400	33.115	0.100
381.500	26.958	0.100
381.600	34.428	0.100
381.700	40.733	0.100
381.800	21.188	0.100
381.900	37.019	0.100
382.000	46.653	0.100
382.100	38.136	0.100
382.200	21.426	0.100
382.300	34.604	0.100
382.400	34.263	0.100
382.500	39.284	0.100
382.600	29.442	0.100
382.700	35.576	0.100
382.800	43.278	0.100
382.900	5.739	0.100
383.000	41.664	0.100
383.100	31.315	0.100
383.200	24.816	0.100
383.300	25.948	0.100
383.400	34.799	0.100
383.500	37.669	0.100
383.600	37.387	0.100
383.700	22.593	0.100
383.800	39.010	0.100
383.900	29.115	0.100
384.000	29.889	0.100
384.100	25.522	0.100
384.200	24.200	0.100
384.300	34.071	0.100
384.400	32.553	0.100
384.500	31.217	0.100
384.600	24.011	0.100
384.700	34.808	0.100
384.800	32.746	0.100
384.900	37.152	0.100
385.000	24.595	0.100
385.100	26.071	0.100
385.200	35.762	0.100
385.300	35.122	0.100
385.400	37.916	0.100
385.500	26.454	0.100
385.600	32.768	0.100
385.700	31.250	0.100
385.800	21.605	0.100
385.900	31.661	0.100
386.000	46.878	0.100
386.100	25.396	0.100
386.200	19.137	0.100
386.300	32.452	0.100
386.400	23.609	0.100
386.500	37.740	0.100
386.600	38.363	0.100
386.700	24.607	0.100
386.800	33.251	0.100
386.900	44.860	0.100
387.000	13.904	0.100
387.100	30.712	0.100
387.200	32.144	0.100
387.300	46.718	0.100
387.400	18.764	0.100
387.500	31.367	0.100
387.600	25.214	0.100
387.700	47.171	0.100
387.800	22.583	0.100
387.900	30.119	0.100
388.000	32.738	0.100
388.100	37.071	0.100
388.200	36.293	0.100
388.300	27.995	0.100
388.400	21.328	0.100
388.500	26.599	0.100
388.600	45.031	0.100
388.700	38.649	0.100
388.800	39.604	0.100
388.900	31.213	0.100
389.000	27.915	0.100
389.100	24.864	0.100
389.200	47.772	0.100
389.300	31.417	0.100
389.400	27.028	0.100
389.500	39.989	0.100
389.600	30.449	0.100
389.700	25.048	0.100
389.800	32.727	0.100
389.900	28.426	0.100
390.000	40.041	0.100
390.100	27.385	0.100
390.200	31.032	0.100
390.300	33.955	0.100
390.400	24.198	0.100
390.500	20.359	0.100
390.600	43.019	0.100
390.700	28.108	0.100
390.800	28.792	0.100
390.900	15.812	0.100
391.000	24.888	0.100
391.100	12.673	0.100
391.200	16.767	0.100
391.300	4.507	0.100
391.400	16.834	0.100
391.500	18.598	0.100
391.600	19.074	0.100
391.700	11.312	0.100
391.800	6.614	0.100
391.900	12.480	0.100
392.000	8.799	0.100
392.100	13.072	0.100
392.200	3.974	0.100
392.300	14.376	0.100
392.400	-7.762	0.100
392.500	-7.500	0.100
392.600	-10.220	0.100
392.700	-11.408	0.100
392.800	1.302	0.100
392.900	-12.550	0.100
393.000	-4.129	0.100
393.100	-10.627	0.100
393.200	0.568	0.100
393.300	-19.302	0.100
393.400	-21.505	0.100
393.500	-19.607	0.100
393.600	-8.050	0.100
393.700	-16.439	0.100
393.800	-24.719	0.100
393.900	-17.053	0.100
394.000	-18.871	0.100
394.100	-17.216	0.100
394.200	-15.712	0.100
394.300	-16.764	0.100
394.400	-6.442	0.100
394.500	-17.282	0.100
394.600	-18.303	0.100
394.700	-16.674	0.100
394.800	-17.613	0.100
394.900	-19.837	0.100
395.000	-10.572	0.100
395.100	-19.939	0.100
395.200	-19.437	0.100
395.300	-6.998	0.100
395.400	-27.331	0.100
395.500	-15.152	0.100
395.600	-27.504	0.100
395.700	-18.706	0.100
395.800	-14.539	0.100
395.900	-18.031	0.100
396.000	-13.037	0.100
396.100	-15.860	0.100
396.200	-26.350	0.100
396.300	-30.119	0.100
396.400	-24.532	0.101
396.500	-19.719	0.100
396.600	-15.644	0.100
396.700	-26.832	0.100
396.800	-36.722	0.100
396.900	-21.412	0.100
397.000	-27.084	0.100
397.100	-26.484	0.100
397.200	-23.651	0.100
397.300	-14.709	0.100
397.400	-18.226	0.100
397.500	-17.537	0.100
397.600	-17.321	0.100
397.700	-13.712	0.100
397.800	-11.687	0.100
397.900	-18.173	0.100
398.000	-15.154	0.100
398.100	-10.606	0.100
398.200	-17.868	0.100
398.300	-25.276	0.100
398.400	-12.413	0.100
398.500	-27.751	0.100
398.600	-23.522	0.100
398.700	-26.608	0.100
398.800	-17.899	0.100
398.900	-22.161	0.100
399.000	-18.049	0.100
399.100	-23.768	0.100
399.200	-23.802	0.100
399.300	-38.099	0.100
399.400	-16.115	0.100
399.500	-18.462	0.100
399.600	-19.971	0.100
399.700	-11.086	0.100
399.800	-12.916	0.101
399.900	-14.578	0.100
400.000	-25.694	0.100
400.100	-27.849	0.100
400.200	-10.284	0.100
400.300	-21.045	0.100
400.400	-10.209	0.100
400.500	-30.174	0.100
400.600	-27.091	0.100
400.700	-29.499	0.100
400.800	-16.456	0.100
400.900	-33.255	0.100
401.000	-18.863	0.100
401.100	-29.547	0.100
401.200	-15.495	0.100
401.300	-16.575	0.100
401.400	-23.235	0.100
401.500	-31.173	0.100
401.600	-20.817	0.100
401.700	-33.614	0.100
401.800	-16.741	0.100
401.900	-31.609	0.100
402.000	-15.266	0.100
402.100	-26.326	0.100
402.200	-21.588	0.100
402.300	-25.894	0.100
402.400	-23.425	0.100
402.500	-21.704	0.100
402.600	-9.082	0.100
402.700	-18.360	0.100
402.800	-30.548	0.100
402.900	-14.721	0.100
403.000	-12.566	0.100
403.100	-15.296	0.100
403.200	-23.535	0.100
403.300	-19.199	0.100
403.400	-21.250	0.100
403.500	-24.379	0.100
403.600	-18.005	0.100
403.700	-20.012	0.100
403.800	-14.559	0.100
403.900	-25.092	0.100
404.000	-30.264	0.100
404.100	-7.290	0.100
404.200	-5.516	0.100
404.300	-28.913	0.100
404.400	-27.787	0.100
404.500	-33.835	0.100
404.600	-26.871	0.100
404.700	-26.513	0.100
404.800	-15.991	0.100
404.900	-17.538	0.100
405.000	-48.053	0.100
405.100	-12.141	0.100
405.200	-22.195	0.100
405.300	-26.083	0.100
405.400	-27.806	0.100
405.500	-18.203	0.100
405.600	-30.128	0.100
405.700	-20.095	0.100
405.800	-22.151	0.100
405.900	-26.793	0.100
406.000	-20.672	0.100
406.100	-13.490	0.100
406.200	-18.956	0.100
406.300	-24.807	0.100
406.400	-31.792	0.100
406.500	-10.080	0.100
406.600	-24.618	0.100
406.700	-19.673	0.100
406.800	-25.243	0.100
406.900	-33.369	0.100
407.000	-27.590	0.100
407.100	-13.634	0.100
407.200	-14.465	0.100
407.300	-16.808	0.100
407.400	-22.864	0.100
407.500	-15.714	0.100
407.600	-23.167	0.100
407.700	-29.031	0.100
407.800	-23.852	0.100
407.900	-8.976	0.100
408.000	-16.789	0.100
408.100	-19.837	0.100
408.200	-21.719	0.100
408.300	-23.756	0.100
408.400	-28.446	0.100
408.500	-30.281	0.100
408.600	-20.546	0.100
408.700	-29.087	0.100
408.800	-26.119	0.100
408.900	-25.009	0.100
409.000	-1.191	0.100
409.100	-25.972	0.100
409.200	-31.371	0.100
409.300	-23.357	0.100
409.400	-24.615	0.100
409.500	-19.604	0.100
409.600	-19.338	0.100
409.700	-27.730	0.100
409.800	-17.314	0.100
409.900	-21.234	0.100
410.000	-26.599	0.100
410.100	-19.426	0.100
410.200	-22.834	0.100
410.300	-36.680	0.100
410.400	-17.769	0.100
410.500	-13.992	0.100
410.600	-17.814	0.100
410.700	-26.995	0.100
410.800	-26.415	0.100
410.900	-17.467	0.100
411.000	-6.950	0.100
411.100	-21.840	0.100
411.200	-22.670	0.100
411.300	-28.906	0.100
411.400	-26.406	0.100
411.500	-7.494	0.100
411.600	-25.412	0.100
411.700	-25.384	0.100
411.800	-27.552	0.100
411.900	-17.316	0.100
412.000	-19.678	0.100
412.100	-28.149	0.100
412.200	-34.799	0.100
412.300	-17.389	0.100
412.400	-23.581	0.100
412.500	-6.870	0.100
412.600	-13.021	0.100
412.700	-21.953	0.100
412.800	-24.647	0.100
412.900	-18.481	0.100
413.000	-26.191	0.100
413.100	-14.721	0.100
413.200	-7.194	0.100
413.300	-20.007	0.100
413.400	-22.703	0.100
413.500	-30.822	0.100
413.600	-17.306	0.100
413.700	-24.818	0.100
413.800	-14.647	0.100
413.900	-21.905	0.100
414.000	-27.304	0.100
414.100	-21.850	0.100
414.200	-24.662	0.100
414.300	-22.204	0.100
414.400	-23.977	0.100
414.500	-12.862	0.100
414.600	-27.912	0.100
414.700	-15.681	0.100
414.800	-15.686	0.100
414.900	-27.440	0.100
415.000	-31.931	0.100
415.100	-16.756	0.100
415.200	-26.657	0.100
415.300	-26.297	0.100
415.400	-22.318	0.100
415.500	-21.321	0.100
415.600	-20.312	0.100
415.700	-23.202	0.100
415.800	-23.434	0.100
415.900	-25.322	0.100
416.000	-25.793	0.100
416.100	-24.138	0.100
416.200	-20.461	0.100
416.300	-20.556	0.100
416.400	-14.678	0.100
416.500	-21.878	0.100
416.600	-27.374	0.100
416.700	-20.265	0.100
416.800	-27.987	0.100
416.900	-18.491	0.100
417.000	-23.377	0.100
417.100	-8.791	0.100
417.200	-26.602	0.100
417.300	-28.864	0.100
417.400	-23.792	0.100
417.500	-10.252	0.100
417.600	-7.471	0.100
417.700	-29.210	0.100
417.800	-16.838	0.100
417.900	-23.940	0.100
418.000	-31.522	0.100
418.100	-20.845	0.100
418.200	-15.780	0.100
418.300	-34.630	0.100
418.400	-13.695	0.100
418.500	-31.700	0.100
418.600	-20.339	0.100
418.700	-11.156	0.100
418.800	-15.870	0.100
418.900	-20.625	0.100
419.000	-15.257	0.100
419.100	-37.961	0.100
419.200	-21.311	0.100
419.300	-17.481	0.100
419.400	-27.019	0.100
419.500	-18.586	0.100
419.600	-9.364	0.100
419.700	-24.781	0.100
419.800	-21.656	0.100
419.900	-13.188	0.100
420.000	-10.381	0.100
420.100	-20.304	0.100
420.200	-21.428	0.100
420.300	-16.932	0.100
420.400	-37.321	0.100
420.500	-29.361	0.100
420.600	-9.618	0.100
420.700	-16.541	0.100
420.800	-21.536	0.100
420.900	-25.761	0.100
421.000	-15.746	0.100
421.100	-31.312	0.100
421.200	-24.641	0.100
421.300	-31.519	0.100
421.400	-3.169	0.100
421.500	-19.593	0.100
421.600	-14.344	0.100
421.700	-23.593	0.100
421.800	-22.935	0.100
421.900	-22.890	0.100
422.000	-16.683	0.100
422.100	-24.003	0.100
422.200	-14.937	0.100
422.300	-19.566	0.100
422.400	-24.193	0.100
422.500	-13.959	0.100
422.600	-23.288	0.100
422.700	-33.002	0.100
422.800	-18.787	0.100
422.900	-15.822	0.100
423.000	-28.366	0.100
423.100	-29.203	0.100
423.200	-18.126	0.100
423.300	-16.489	0.100
423.400	-21.574	0.100
423.500	-5.643	0.100
423.600	-17.655	0.100
423.700	-18.848	0.100
423.800	-23.469	0.100
423.900	-24.900	0.100
424.000	-9.632	0.100
424.100	-21.902	0.100
424.200	-9.700	0.100
424.300	-26.032	0.100
424.400	-24.493	0.100
424.500	-20.105	0.100
424.600	-8.479	0.100
424.700	-25.448	0.100
424.800	-13.038	0.100
424.900	-27.091	0.100
425.000	-16.458	0.100
425.100	-13.719	0.100
425.200	-14.349	0.100
425.300	-15.523	0.100
425.400	-29.081	0.100
425.500	-25.654	0.100
425.600	-10.474	0.100
425.700	-8.737	0.100
425.800	-8.911	0.100
425.900	-19.679	0.100
426.000	-37.119	0.100
426.100	-15.498	0.100
426.200	-26.788	0.100
426.300	0.196	0.100
426.400	-4.795	0.100
426.500	-13.093	0.100
426.600	-7.346	0.100
426.700	-29.172	0.100
426.800	-17.422	0.100
426.900	-14.838	0.100
427.000	-22.135	0.100
427.100	-20.912	0.100
427.200	-5.490	0.100
427.300	-21.978	0.100
427.400	-23.025	0.100
427.500	-28.776	0.100
427.600	-13.470	0.100
427.700	-33.445	0.100
427.800	-19.658	0.100
427.900	-16.996	0.100
428.000	-20.125	0.100
428.100	-16.081	0.100
428.200	-14.953	0.100
428.300	-21.800	0.100
428.400	-19.494	0.100
428.500	-15.145	0.100
428.600	-12.813	0.100
428.700	-17.077	0.100
428.800	-16.260	0.100
428.900	-9.420	0.100
429.000	-3.318	0.100
429.100	-8.665	0.100
429.200	-12.834	0.100
429.300	-36.276	0.100
429.400	-19.506	0.100
429.500	-15.860	0.100
429.600	-17.420	0.100
429.700	-24.556	0.100
429.800	-13.231	0.100
429.900	-13.057	0.100
430.000	-29.386	0.100
430.100	-13.796	0.100
430.200	-20.694	0.100
430.300	-16.031	0.100
430.400	-30.338	0.100
430.500	-20.472	0.100
430.600	-17.680	0.100
430.700	-14.972	0.100
430.800	-25.313	0.100
430.900	-18.931	0.100
431.000	-19.234	0.100
431.100	-13.945	0.100
431.200	-31.824	0.100
431.300	-9.739	0.100
431.400	-9.686	0.100
431.500	-15.635	0.100
431.600	-25.676	0.100
431.700	-9.066	0.100
431.800	-8.142	0.100
431.900	-19.210	0.100
432.000	-15.051	0.100
432.100	-12.180	0.100
432.200	-14.052	0.100
432.300	-17.129	0.100
432.400	-26.207	0.100
432.500	-15.209	0.100
432.600	-16.148	0.100
432.700	-20.122	0.100
432.800	-19.852	0.100
432.900	-9.433	0.100
433.000	-18.670	0.100
433.100	-21.249	0.100
433.200	-13.482	0.100
433.300	-9.980	0.100
433.400	-14.677	0.100
433.500	-16.323	0.100
433.600	-19.080	0.100
433.700	-27.667	0.100
433.800	-15.233	0.100
433.900	-11.447	0.100
434.000	-21.176	0.100
434.100	-18.348	0.100
434.200	-26.044	0.100
434.300	-14.715	0.100
434.400	-26.628	0.100
434.500	-16.325	0.100
434.600	-12.545	0.100
434.700	-22.722	0.100
434.800	-24.722	0.100
434.900	-19.809	0.100
435.000	-9.770	0.100
435.100	-33.693	0.100
435.200	-13.002	0.100
435.300	-20.134	0.100
435.400	-4.441	0.100
435.500	-23.552	0.100
435.600	-20.166	0.100
435.700	-19.689	0.100
435.800	-14.835	0.100
435.900	-29.860	0.100
436.000	-4.689	0.100
436.100	-26.110	0.100
436.200	-11.678	0.100
436.300	-21.275	0.100
436.400	-19.812	0.100
436.500	-25.061	0.100
436.600	-24.846	0.100
436.700	-17.193	0.100
436.800	-26.461	0.100
436.900	-19.379	0.100
437.000	-17.108	0.100
437.100	-20.671	0.100
437.200	-25.997	0.100
437.300	-14.298	0.100
437.400	-10.174	0.100
437.500	-10.047	0.100
437.600	-23.465	0.100
437.700	-21.535	0.100
437.800	-23.559	0.100
437.900	-3.722	0.100
438.000	-23.997	0.100
438.100	0.024	0.100
438.200	-20.449	0.100
438.300	-8.296	0.100
438.400	-21.351	0.100
438.500	-16.943	0.100
438.600	-0.965	0.100
438.700	-31.644	0.100
438.800	-13.451	0.100
438.900	-24.585	0.100
439.000	-7.804	0.100
439.100	-15.494	0.100
439.200	-27.307	0.100
439.300	-21.500	0.100
439.400	-21.090	0.100
439.500	-19.143	0.100
439.600	-31.907	0.100
439.700	-15.148	0.100
439.800	-10.267	0.100
439.900	-11.917	0.100
440.000	-15.991	0.100
440.100	-12.965	0.100
440.200	-14.781	0.100
440.300	-21.932	0.100
440.400	-13.234	0.100
440.500	-19.133	0.100
440.600	-26.360	0.100
440.700	-5.372	0.100
440.800	-9.004	0.100
440.900	-16.078	0.100
441.000	-12.219	0.100
441.100	-12.134	0.100
441.200	-11.787	0.100
441.300	-14.218	0.100
441.400	-13.702	0.100
441.500	-21.539	0.100
441.600	-23.963	0.100
441.700	-12.133	0.100
441.800	-19.037	0.100
441.900	-24.736	0.100
442.000	-15.171	0.100
442.100	-8.919	0.100
442.200	-11.079	0.100
442.300	-24.212	0.100
442.400	-14.058	0.100
442.500	-6.720	0.100
442.600	-30.824	0.100
442.700	-17.814	0.100
442.800	-1.031	0.100
442.900	-22.440	0.100
443.000	-14.490	0.100
443.100	-15.258	0.100
443.200	-2.847	0.100
443.300	-0.767	0.100
443.400	-32.502	0.100
443.500	-13.446	0.100
443.600	-20.205	0.100
443.700	-4.811	0.100
443.800	-18.281	0.100
443.900	-17.038	0.100
444.000	-14.131	0.100
444.100	-17.093	0.100
444.200	-18.186	0.100
444.300	-12.229	0.100
444.400	-13.445	0.100
444.500	-12.333	0.100
444.600	-29.237	0.100
444.700	-22.226	0.100
444.800	-14.808	0.100
444.900	-8.889	0.100
445.000	-22.587	0.100
445.100	-22.133	0.100
445.200	-20.200	0.100
445.300	-8.626	0.100
445.400	-8.379	0.100
445.500	-11.607	0.100
445.600	-13.973	0.100
445.700	-11.329	0.100
445.800	-8.223	0.100
445.900	-21.250	0.100
446.000	-10.177	0.100
446.100	-9.781	0.100
446.200	-6.525	0.100
446.300	-12.271	0.100
446.400	-27.133	0.100
446.500	-30.009	0.100
446.600	-17.621	0.100
446.700	-15.117	0.100
446.800	-10.211	0.100
446.900	-10.826	0.100
447.000	-13.343	0.100
447.100	-4.262	0.100
447.200	-24.021	0.100
447.300	-19.015	0.100
447.400	-6.581	0.100
447.500	-18.401	0.100
447.600	-17.402	0.100
447.700	-14.778	0.100
447.800	-7.947	0.100
447.900	-10.514	0.100
448.000	-12.580	0.100
448.100	-16.616	0.100
448.200	-17.644	0.100
448.300	-15.785	0.100
448.400	-17.741	0.100
448.500	2.355	0.100
448.600	-17.983	0.100
448.700	-32.311	0.100
448.800	-15.914	0.100
448.900	-26.056	0.100
449.000	-27.336	0.100
449.100	-6.054	0.100
449.200	-5.703	0.100
449.300	-14.130	0.100
449.400	-14.472	0.100
449.500	-12.051	0.100
449.600	-19.790	0.100
449.700	-10.503	0.100
449.800	-8.919	0.100
449.900	-19.395	0.100
450.000	-24.720	0.100
450.100	-10.636	0.100
450.200	-23.815	0.100
450.300	-15.426	0.100
450.400	-7.943	0.100
450.500	-3.804	0.100
450.600	-21.529	0.100
450.700	-9.199	0.100
450.800	-1.533	0.100
450.900	-24.916	0.100
451.000	-21.873	0.100
451.100	-8.434	0.100
451.200	-11.292	0.100
451.300	-18.270	0.100
451.400	-10.864	0.100
451.500	-24.718	0.100
451.600	-10.223	0.100
451.700	-11.743	0.100
451.800	-15.459	0.100
451.900	-25.380	0.100
452.000	-18.764	0.100
452.100	-16.688	0.100
452.200	-11.017	0.100
452.300	-19.838	0.100
452.400	-20.780	0.100
452.500	-23.578	0.100
452.600	-10.355	0.100
452.700	-4.912	0.100
452.800	-17.996	0.100
452.900	-18.490	0.100
453.000	-22.019	0.100
453.100	-19.392	0.100
453.200	-13.859	0.100
453.300	-12.620	0.100
453.400	2.096	0.100
453.500	-16.100	0.100
453.600	-15.188	0.100
453.700	-38.558	0.100
453.800	-7.888	0.100
453.900	-24.116	0.100
454.000	-21.577	0.100
454.100	-27.647	0.100
454.200	-9.741	0.100
454.300	-10.798	0.100
454.400	-21.422	0.100
454.500	-18.893	0.100
454.600	-8.698	0.100
454.700	-9.825	0.100
454.800	-7.243	0.100
454.900	-8.266	0.100
455.000	0.941	0.100
455.100	-22.982	0.100
455.200	-22.710	0.100
455.300	-13.284	0.100
455.400	-16.345	0.100
455.500	-5.309	0.100
455.600	-30.303	0.100
455.700	-8.347	0.100
455.800	-7.469	0.100
455.900	-6.256	0.100
456.000	8.590	0.100
456.100	-2.436	0.100
456.200	-24.367	0.100
456.300	-14.064	0.100
456.400	-13.546	0.100
456.500	-12.295	0.100
456.600	-24.074	0.100
456.700	-11.213	0.100
456.800	-9.780	0.100
456.900	-21.601	0.100
457.000	-12.351	0.100
457.100	-23.244	0.100
457.200	-20.789	0.100
457.300	-10.632	0.100
457.400	-16.709	0.100
457.500	-13.462	0.100
457.600	-14.637	0.100
457.700	-19.069	0.100
457.800	-18.399	0.100
457.900	-14.727	0.100
458.000	-8.175	0.100
458.100	-16.341	0.100
458.200	-12.784	0.100
458.300	-9.231	0.100
458.400	-16.128	0.100
458.500	-19.611	0.100
458.600	-9.248	0.100
458.700	-6.206	0.100
458.800	-22.461	0.100
458.900	-7.884	0.100
459.000	4.462	0.100
459.100	-14.976	0.100
459.200	-16.527	0.100
459.300	-18.173	0.100
459.400	-11.735	0.100
459.500	-17.810	0.100
459.600	-14.413	0.100
459.700	-17.780	0.100
459.800	-22.076	0.100
459.900	-20.748	0.100
460.000	-19.934	0.100
460.100	-11.585	0.100
460.200	-7.577	0.100
460.300	-13.837	0.100
460.400	-11.657	0.100
460.500	-21.110	0.100
460.600	-11.952	0.100
460.700	-14.671	0.100
460.800	-10.925	0.100
460.900	-15.661	0.100
461.000	-11.707	0.100
461.100	-7.317	0.100
461.200	-27.507	0.100
461.300	-8.838	0.100
461.400	-30.305	0.100
461.500	-15.365	0.100
461.600	4.457	0.100
461.700	-30.382	0.100
461.800	-12.267	0.100
461.900	-14.231	0.100
462.000	-12.672	0.100
462.100	-6.698	0.100
462.200	-11.057	0.100
462.300	-6.257	0.100
462.400	-13.915	0.100
462.500	-15.322	0.100
462.600	-10.489	0.100
462.700	-27.373	0.100
462.800	-15.635	0.100
462.900	-13.418	0.100
463.000	-5.088	0.100
463.100	-19.726	0.100
463.200	-16.204	0.100
463.300	-11.843	0.100
463.400	-10.949	0.100
463.500	-16.786	0.100
463.600	-7.204	0.100
463.700	2.261	0.100
463.800	-13.679	0.100
463.900	-22.978	0.100
464.000	-16.936	0.100
464.100	0.069	0.100
464.200	-13.338	0.100
464.300	-13.170	0.100
464.400	-24.345	0.100
464.500	-16.606	0.100
464.600	-9.568	0.100
464.700	-8.937	0.100
464.800	-6.139	0.100
464.900	-13.572	0.100
465.000	-11.529	0.100
465.100	-8.962	0.100
465.200	-9.645	0.100
465.300	-19.105	0.100
465.400	-23.039	0.100
465.500	-8.355	0.100
465.600	-13.752	0.100
465.700	-13.917	0.100
465.800	-10.502	0.100
465.900	-16.959	0.100
466.000	-5.974	0.100
466.100	-16.429	0.100
466.200	-19.931	0.100
466.300	-17.133	0.100
466.400	-8.175	0.100
466.500	-12.777	0.100
466.600	-14.150	0.100
466.700	-7.862	0.100
466.800	-11.088	0.100
466.900	-11.343	0.100
467.000	-17.759	0.100
467.100	-14.738	0.100
467.200	-1.310	0.100
467.300	-4.547	0.100
467.400	-15.982	0.100
467.500	-10.463	0.100
467.600	-21.278	0.100
467.700	-25.929	0.100
467.800	-12.765	0.100
467.900	-17.170	0.100
468.000	-17.818	0.100
468.100	-8.865	0.100
468.200	-6.613	0.100
468.300	-9.751	0.100
468.400	-20.760	0.100
468.500	-8.541	0.100
468.600	-21.348	0.100
468.700	-14.267	0.100
468.800	-2.607	0.100
468.900	-20.382	0.100
469.000	6.816	0.100
469.100	-14.757	0.100
469.200	-7.587	0.100
469.300	-9.478	0.100
469.400	-20.014	0.100
469.500	-10.302	0.100
469.600	-25.202	0.100
469.700	-17.715	0.100
469.800	-16.282	0.100
469.900	-14.982	0.100
470.000	-23.886	0.100
470.100	-17.163	0.100
470.200	-15.775	0.100
470.300	3.449	0.100
470.400	-21.802	0.100
470.500	-12.587	0.100
470.600	-5.991	0.100
470.700	-8.870	0.100
470.800	-10.611	0.100
470.900	-21.757	0.100
471.000	-15.684	0.100
471.100	-9.139	0.100
471.200	-8.119	0.100
471.300	-10.892	0.100
471.400	-22.885	0.100
471.500	-20.045	0.100
471.600	-7.944	0.100
471.700	-12.705	0.100
471.800	-20.903	0.100
471.900	-8.278	0.100
472.000	-17.487	0.100
472.100	-8.596	0.100
472.200	0.006	0.100
472.300	-9.235	0.100
472.400	-19.017	0.100
472.500	-14.116	0.100
472.600	-8.877	0.100
472.700	-17.724	0.100
472.800	-18.098	0.100
472.900	-10.020	0.100
473.000	-20.839	0.100
473.100	-16.169	0.100
473.200	-2.105	0.100
473.300	-8.216	0.100
473.400	-25.480	0.100
473.500	-21.330	0.100
473.600	-12.918	0.100
473.700	-5.555	0.100
473.800	-16.343	0.100
473.900	-19.213	0.100
474.000	-6.871	0.100
474.100	-9.528	0.100
474.200	-1.250	0.100
474.300	-14.999	0.100
474.400	-31.380	0.100
474.500	-11.155	0.100
474.600	-7.170	0.100
474.700	-11.463	0.100
474.800	-11.485	0.100
474.900	-18.921	0.100
475.000	-11.698	0.100
475.100	-4.149	0.100
475.200	-11.300	0.100
475.300	-4.029	0.100
475.400	-20.255	0.100
475.500	-19.960	0.100
475.600	-14.257	0.100
475.700	-10.474	0.100
475.800	-13.427	0.100
475.900	-17.484	0.100
476.000	-0.303	0.100
476.100	-22.934	0.100
476.200	-5.249	0.100
476.300	-13.161	0.100
476.400	-8.342	0.100
476.500	-16.241	0.100
476.600	-28.967	0.100
476.700	-7.151	0.100
476.800	-4.128	0.100
476.900	-9.018	0.100
477.000	-23.295	0.100
477.100	-12.600	0.100
477.200	-8.633	0.100
477.300	-8.912	0.100
477.400	-21.491	0.100
477.500	-9.028	0.100
477.600	-17.661	0.100
477.700	-9.919	0.100
477.800	-10.278	0.100
477.900	-6.349	0.100
478.000	-12.914	0.100
478.100	-10.564	0.100
478.200	-18.244	0.100
478.300	-10.649	0.100
478.400	-8.661	0.100
478.500	-22.768	0.100
478.600	-21.458	0.100
478.700	-23.790	0.100
478.800	-11.565	0.100
478.900	-5.760	0.100
479.000	-3.567	0.100
479.100	-18.856	0.100
479.200	-29.384	0.100
479.300	-18.329	0.100
479.400	-8.323	0.100
479.500	-23.136	0.100
479.600	-10.210	0.100
479.700	-6.445	0.100
479.800	-11.311	0.100
479.900	-14.240	0.100
480.000	-15.444	0.100
480.100	-17.960	0.100
480.200	-27.094	0.100
480.300	-4.430	0.100
480.400	-18.568	0.100
480.500	-13.426	0.100
480.600	-7.867	0.100
480.700	-8.762	0.100
480.800	-15.408	0.100
480.900	-1.888	0.100
481.000	-4.623	0.100
481.100	-2.682	0.100
481.200	1.985	0.100
481.300	-6.450	0.100
481.400	-0.378	0.100
481.500	4.273	0.100
481.600	-3.669	0.100
481.700	4.565	0.100
481.800	-5.454	0.100
481.900	4.147	0.100
482.000	0.942	0.100
482.100	-4.528	0.100
482.200	2.662	0.100
482.300	5.734	0.100
482.400	11.605	0.100
482.500	-1.963	0.100
482.600	10.953	0.100
482.700	17.007	0.100
482.800	-7.173	0.100
482.900	5.864	0.100
483.000	11.145	0.100
483.100	8.029	0.100
483.200	12.959	0.100
483.300	5.056	0.100
483.400	1.530	0.100
483.500	-2.320	0.100
483.600	7.187	0.100
483.700	4.485	0.100
483.800	20.131	0.100
483.900	19.764	0.100
484.000	1.990	0.100
484.100	3.351	0.100
484.200	4.616	0.100
484.300	7.043	0.100
484.400	-8.184	0.100
484.500	4.436	0.100
484.600	8.012	0.100
484.700	2.811	0.100
484.800	-8.200	0.100
484.900	2.384	0.100
485.000	17.791	0.100
485.100	8.392	0.100
485.200	4.449	0.100
485.300	8.600	0.100
485.400	3.481	0.100
485.500	3.562	0.100
485.600	13.826	0.100
485.700	-4.470	0.100
485.800	9.900	0.100
485.900	4.170	0.100
486.000	8.783	0.100
486.100	-2.335	0.100
486.200	8.541	0.100
486.300	4.838	0.100
486.400	1.937	0.100
486.500	18.748	0.100
486.600	6.985	0.100
486.700	2.495	0.100
486.800	3.407	0.100
486.900	10.585	0.100
487.000	-3.503	0.100
487.100	7.440	0.100
487.200	14.829	0.100
487.300	8.897	0.100
487.400	8.330	0.100
487.500	-3.883	0.100
487.600	6.793	0.100
487.700	24.464	0.100
487.800	3.445	0.100
487.900	2.706	0.100
488.000	2.602	0.100
488.100	5.097	0.100
488.200	1.515	0.100
488.300	9.994	0.100
488.400	21.204	0.100
488.500	-1.641	0.100
488.600	7.378	0.100
488.700	8.580	0.100
488.800	12.621	0.100
488.900	-3.520	0.100
489.000	12.745	0.100
489.100	3.109	0.100
489.200	2.833	0.100
489.300	6.939	0.100
489.400	26.746	0.100
489.500	9.810	0.100
489.600	10.767	0.100
489.700	10.982	0.100
489.800	4.473	0.100
489.900	5.454	0.100
490.000	4.527	0.100
490.100	24.070	0.100
490.200	5.143	0.100
490.300	7.827	0.100
490.400	25.943	0.100
490.500	22.324	0.100
490.600	1.254	0.100
490.700	14.834	0.100
490.800	7.174	0.100
490.900	26.336	0.100
491.000	23.102	0.100
491.100	18.496	0.100
491.200	3.174	0.100
491.300	12.452	0.100
491.400	11.748	0.100
491.500	1.311	0.100
491.600	20.557	0.100
491.700	18.700	0.100
491.800	18.222	0.100
491.900	9.613	0.100
492.000	14.570	0.100
492.100	11.848	0.100
492.200	19.456	0.100
492.300	11.945	0.100
492.400	1.027	0.100
492.500	11.470	0.100
492.600	32.822	0.100
492.700	3.952	0.100
492.800	19.696	0.100
492.900	21.332	0.100
493.000	18.871	0.100
493.100	14.774	0.100
493.200	18.573	0.100
493.300	2.018	0.100
493.400	9.851	0.100
493.500	23.647	0.100
493.600	13.006	0.100
493.700	3.037	0.100
493.800	15.011	0.100
493.900	22.505	0.100
494.000	19.941	0.100
494.100	21.037	0.100
494.200	9.606	0.100
494.300	25.459	0.100
494.400	11.921	0.100
494.500	6.605	0.100
494.600	16.853	0.100
494.700	19.342	0.100
494.800	12.643	0.100
494.900	14.050	0.100
495.000	15.769	0.100
495.100	26.379	0.100
495.200	27.772	0.100
495.300	20.606	0.100
495.400	9.844	0.100
495.500	22.414	0.100
495.600	14.959	0.100
495.700	8.393	0.100
495.800	0.783	0.100
495.900	23.461	0.100
496.000	22.723	0.100
496.100	18.772	0.100
496.200	23.535	0.100
496.300	23.302	0.100
496.400	17.330	0.100
496.500	24.246	0.100
496.600	18.715	0.100
496.700	18.225	0.100
496.800	31.482	0.100
496.900	19.499	0.100
497.000	22.859	0.100
497.100	19.977	0.100
497.200	19.724	0.100
497.300	12.355	0.100
497.400	21.481	0.100
497.500	28.667	0.100
497.600	15.031	0.100
497.700	29.550	0.100
497.800	24.425	0.100
497.900	8.637	0.100
498.000	22.346	0.100
498.100	13.845	0.100
498.200	24.005	0.100
498.300	21.238	0.100
498.400	3.466	0.100
498.500	24.361	0.100
498.600	23.863	0.100
498.700	31.882	0.100
498.800	22.170	0.100
498.900	17.848	0.100
499.000	10.989	0.100
499.100	33.188	0.100
499.200	24.147	0.100
499.300	1.351	0.100
499.400	33.683	0.100
499.500	30.686	0.100
499.600	35.420	0.100
499.700	19.186	0.100
499.800	23.380	0.100
499.900	12.125	0.100
500.000	22.787	0.100
500.100	16.881	0.100
500.200	18.997	0.100
500.300	28.725	0.100
500.400	41.119	0.100
500.500	21.918	0.100
500.600	29.055	0.100
500.700	31.259	0.100
500.800	29.933	0.100
500.900	25.649	0.100
501.000	26.306	0.100
501.100	12.485	0.100
501.200	33.547	0.100
501.300	31.652	0.100
501.400	35.357	0.100
501.500	14.059	0.100
501.600	39.561	0.100
501.700	15.250	0.100
501.800	30.182	0.100
501.900	-0.478	0.100
502.000	32.429	0.100
502.100	28.589	0.100
502.200	22.508	0.100
502.300	22.208	0.100
502.400	31.819	0.100
502.500	26.902	0.100
502.600	35.538	0.100
502.700	18.898	0.100
502.800	21.336	0.100
502.900	16.430	0.100
503.000	26.771	0.100
503.100	18.365	0.100
503.200	28.510	0.100
503.300	26.975	0.100
503.400	17.499	0.100
503.500	37.659	0.100
503.600	21.172	0.100
503.700	34.400	0.100
503.800	40.381	0.100
503.900	24.986	0.100
504.000	30.353	0.100
504.100	21.232	0.100
504.200	40.677	0.100
504.300	23.347	0.100
504.400	35.452	0.100
504.500	21.567	0.100
504.600	29.135	0.100
504.700	32.473	0.100
504.800	31.090	0.100
504.900	24.226	0.100
505.000	21.982	0.100
505.100	32.253	0.100
505.200	28.897	0.101
505.300	32.295	0.100
505.400	33.418	0.100
505.500	31.971	0.100
505.600	30.068	0.100
505.700	26.700	0.100
505.800	43.098	0.100
505.900	14.748	0.100
506.000	38.135	0.100
506.100	34.887	0.100
506.200	32.659	0.100
506.300	26.836	0.100
506.400	32.306	0.100
506.500	27.633	0.100
506.600	28.016	0.100
506.700	31.290	0.100
506.800	40.810	0.100
506.900	25.589	0.100
507.000	23.887	0.100
507.100	36.944	0.100
507.200	19.723	0.100
507.300	35.463	0.100
507.400	30.786	0.100
507.500	22.566	0.100
507.600	30.437	0.100
507.700	32.241	0.100
507.800	31.292	0.100
507.900	35.532	0.100
508.000	28.554	0.100
508.100	33.299	0.100
508.200	26.900	0.100
508.300	21.562	0.100
508.400	19.265	0.100
508.500	21.242	0.100
508.600	31.711	0.100
508.700	29.298	0.100
508.800	27.549	0.100
508.900	33.097	0.100
509.000	24.483	0.100
509.100	25.830	0.100
509.200	31.199	0.100
509.300	34.835	0.100
509.400	30.700	0.100
509.500	30.143	0.100
509.600	31.679	0.100
509.700	34.056	0.100
509.800	28.015	0.100
509.900	31.055	0.100
510.000	32.538	0.100
510.100	19.074	0.100
510.200	28.721	0.100
510.300	27.916	0.100
510.400	35.860	0.100
510.500	32.919	0.100
510.600	22.344	0.100
510.700	32.556	0.100
510.800	26.698	0.100
510.900	17.512	0.100
511.000	29.605	0.100
511.100	33.382	0.100
511.200	31.618	0.100
511.300	31.719	0.100
511.400	27.282	0.100
511.500	43.579	0.100
511.600	23.069	0.100
511.700	41.643	0.100
511.800	25.176	0.100
511.900	28.645	0.100
512.000	36.003	0.100
512.100	23.993	0.100
512.200	47.707	0.100
512.300	33.382	0.100
512.400	29.499	0.100
512.500	11.983	0.100
512.600	43.912	0.100
512.700	39.471	0.100
512.800	28.801	0.100
512.900	38.565	0.100
513.000	20.350	0.100
513.100	29.264	0.100
513.200	32.960	0.100
513.300	27.443	0.100
513.400	31.200	0.100
513.500	25.493	0.100
513.600	28.532	0.100
513.700	36.246	0.100
513.800	34.222	0.100
513.900	41.237	0.100
514.000	23.682	0.100
514.100	16.942	0.100
514.200	34.797	0.100
514.300	32.218	0.100
514.400	31.010	0.100
514.500	30.437	0.100
514.600	44.922	0.100
514.700	32.921	0.100
514.800	26.142	0.100
514.900	29.671	0.100
515.000	37.803	0.100
515.100	27.341	0.100
515.200	45.555	0.100
515.300	18.155	0.100
515.400	20.280	0.100
515.500	48.055	0.100
515.600	32.270	0.100
515.700	30.415	0.100
515.800	23.731	0.100
515.900	32.336	0.100
516.000	30.708	0.100
516.100	37.654	0.100
516.200	45.089	0.100
516.300	44.169	0.100
516.400	25.613	0.100
516.500	23.817	0.100
516.600	24.304	0.100
516.700	33.806	0.100
516.800	37.164	0.100
516.900	28.110	0.100
517.000	38.159	0.100
517.100	36.906	0.100
517.200	33.588	0.100
517.300	23.747	0.100
517.400	35.813	0.100
517.500	37.709	0.100
517.600	32.450	0.100
517.700	38.250	0.100
517.800	25.262	0.100
517.900	33.439	0.100
518.000	31.793	0.100
518.100	17.682	0.100
518.200	37.237	0.100
518.300	36.226	0.100
518.400	46.547	0.100
518.500	42.546	0.100
518.600	24.902	0.100
518.700	31.830	0.100
518.800	28.477	0.100
518.900	27.418	0.100
519.000	47.961	0.100
519.100	21.845	0.100
519.200	29.035	0.100
519.300	34.202	0.100
519.400	29.142	0.100
519.500	27.953	0.100
519.600	26.819	0.100
519.700	39.380	0.100
519.800	31.702	0.100
519.900	41.127	0.100
520.000	28.157	0.100
520.100	31.243	0.100
520.200	32.448	0.100
520.300	34.313	0.100
520.400	33.913	0.100
520.500	35.454	0.100
520.600	39.010	0.100
520.700	31.415	0.100
520.800	22.255	0.100
520.900	37.701	0.100
521.000	30.078	0.100
521.100	32.992	0.100
521.200	32.541	0.100
521.300	35.811	0.100
521.400	40.578	0.100
521.500	32.412	0.100
521.600	36.585	0.100
521.700	22.451	0.100
521.800	32.457	0.100
521.900	37.708	0.100
522.000	44.027	0.100
522.100	22.672	0.100
522.200	29.330	0.100
522.300	34.750	0.100
522.400	22.932	0.100
522.500	26.582	0.100
522.600	46.166	0.100
522.700	30.512	0.100
522.800	24.092	0.100
522.900	25.415	0.100
523.000	32.728	0.100
523.100	37.132	0.100
523.200	30.399	0.100
523.300	40.013	0.100
523.400	34.538	0.100
523.500	25.699	0.100
523.600	33.938	0.100
523.700	37.664	0.100
523.800	29.883	0.100
523.900	28.921	0.100
524.000	37.162	0.100
524.100	41.885	0.100
524.200	41.542	0.100
524.300	35.340	0.100
524.400	42.333	0.100
524.500	24.945	0.100
524.600	39.781	0.100
524.700	36.830	0.100
524.800	16.565	0.100
524.900	34.714	0.100
525.000	35.853	0.100
525.100	30.931	0.100
525.200	36.836	0.100
525.300	48.106	0.100
525.400	19.468	0.100
525.500	36.663	0.100
525.600	17.083	0.100
525.700	30.286	0.100
525.800	28.068	0.100
525.900	21.267	0.100
526.000	38.120	0.100
526.100	22.498	0.100
526.200	37.098	0.100
526.300	32.541	0.100
526.400	28.990	0.100
526.500	30.660	0.100
526.600	46.100	0.100
526.700	26.448	0.100
526.800	28.051	0.100
526.900	41.516	0.100
527.000	32.804	0.100
527.100	53.073	0.100
527.200	35.067	0.100
527.300	32.536	0.100
527.400	33.152	0.100
527.500	21.778	0.100
527.600	40.123	0.100
527.700	22.244	0.100
527.800	30.431	0.100
527.900	29.457	0.100
528.000	32.923	0.100
528.100	34.879	0.100
528.200	30.463	0.100
528.300	38.530	0.100
528.400	44.597	0.100
528.500	29.799	0.100
528.600	33.396	0.100
528.700	30.448	0.100
528.800	42.080	0.100
528.900	25.579	0.100
529.000	35.196	0.100
529.100	22.971	0.100
529.200	27.423	0.100
529.300	16.897	0.100
529.400	47.863	0.100
529.500	39.766	0.100
529.600	26.663	0.100
529.700	30.094	0.100
529.800	31.526	0.100
529.900	35.468	0.100
530.000	30.983	0.100
530.100	31.038	0.100
530.200	35.122	0.100
530.300	29.424	0.100
530.400	29.891	0.100
530.500	26.730	0.100
530.600	16.087	0.100
530.700	28.495	0.100
530.800	25.273	0.100
530.900	30.795	0.100
531.000	36.759	0.100
531.100	24.808	0.100
531.200	30.180	0.100
531.300	34.656	0.100
531.400	31.178	0.100
531.500	26.908	0.100
531.600	32.727	0.100
531.700	21.490	0.100
531.800	31.735	0.100
531.900	37.892	0.100
532.000	20.633	0.100
532.100	29.090	0.100
532.200	24.639	0.100
532.300	32.954	0.100
532.400	33.010	0.100
532.500	38.935	0.100
532.600	29.855	0.100
532.700	35.750	0.100
532.800	25.358	0.100
532.900	36.338	0.100
533.000	40.915	0.100
533.100	29.020	0.100
533.200	27.682	0.100
533.300	27.114	0.100
533.400	19.810	0.100
533.500	27.737	0.100
533.600	30.710	0.100
533.700	29.482	0.100
533.800	36.196	0.100
533.900	25.835	0.100
534.000	34.287	0.100
534.100	36.261	0.100
534.200	19.437	0.100
534.300	32.646	0.100
534.400	14.065	0.100
534.500	31.925	0.100
534.600	32.674	0.100
534.700	32.041	0.100
534.800	38.111	0.100
534.900	30.491	0.100
535.000	31.315	0.100
535.100	40.609	0.100
535.200	26.153	0.100
535.300	43.892	0.100
535.400	29.838	0.100
535.500	22.653	0.100
535.600	34.445	0.100
535.700	18.267	0.100
535.800	37.522	0.100
535.900	23.198	0.100
536.000	15.905	0.100
536.100	37.134	0.100
536.200	37.561	0.100
536.300	34.189	0.100
536.400	27.654	0.100
536.500	25.739	0.100
536.600	34.067	0.100
536.700	22.354	0.100
536.800	24.183	0.100
536.900	38.050	0.100
537.000	44.334	0.100
537.100	38.979	0.100
537.200	31.396	0.100
537.300	30.118	0.100
537.400	21.172	0.100
537.500	29.209	0.100
537.600	43.171	0.100
537.700	32.541	0.100
537.800	51.814	0.100
537.900	28.528	0.100
538.000	20.327	0.100
538.100	23.493	0.100
538.200	32.367	0.100
538.300	31.076	0.100
538.400	30.655	0.100
538.500	30.047	0.100
538.600	21.721	0.100
538.700	30.765	0.100
538.800	34.946	0.100
538.900	22.315	0.100
539.000	33.323	0.100
539.100	41.185	0.100
539.200	29.050	0.100
539.300	30.434	0.100
539.400	30.689	0.100
539.500	35.704	0.100
539.600	35.688	0.100
539.700	31.698	0.100
539.800	33.177	0.100
539.900	31.017	0.100
540.000	34.474	0.100
540.100	30.621	0.100
540.200	21.465	0.100
540.300	32.910	0.100
540.400	39.736	0.100
540.500	27.327	0.100
540.600	25.909	0.100
540.700	17.358	0.100
540.800	31.582	0.100
540.900	28.939	0.100
541.000	18.043	0.100
541.100	9.768	0.100
541.200	28.266	0.100
541.300	13.259	0.100
541.400	27.212	0.100
541.500	15.340	0.100
541.600	6.799	0.100
541.700	7.523	0.100
541.800	9.470	0.100
541.900	13.921	0.100
542.000	5.485	0.100
542.100	3.253	0.100
542.200	2.937	0.100
542.300	-7.005	0.100
542.400	9.772	0.100
542.500	-0.414	0.100
542.600	-1.233	0.100
542.700	-6.683	0.100
542.800	-4.762	0.100
542.900	-0.102	0.100
543.000	-5.386	0.100
543.100	-7.955	0.100
543.200	-21.885	0.100
543.300	-9.327	0.100
543.400	-18.335	0.100
543.500	-12.390	0.100
543.600	-8.194	0.100
543.700	-11.548	0.100
543.800	-1.140	0.100
543.900	-25.068	0.100
544.000	-10.485	0.100
544.100	-11.567	0.100
544.200	-15.551	0.100
544.300	-18.297	0.100
544.400	-34.572	0.100
544.500	-19.257	0.100
544.600	-22.874	0.100
544.700	-24.593	0.100
544.800	-16.116	0.100
544.900	-6.203	0.100
545.000	-19.067	0.100
545.100	-19.190	0.100
545.200	-24.681	0.100
545.300	-9.366	0.100
545.400	-12.775	0.100
545.500	-20.458	0.100
545.600	-22.650	0.100
545.700	-21.867	0.100
545.800	-17.334	0.100
545.900	-32.026	0.100
546.000	-11.645	0.100
546.100	-32.231	0.100
546.200	-31.703	0.100
546.300	-21.141	0.100
546.400	-36.108	0.100
546.500	-13.293	0.100
546.600	-16.462	0.100
546.700	-24.998	0.100
546.800	2.092	0.100
546.900	-24.216	0.100
547.000	-23.762	0.100
547.100	-27.808	0.100
547.200	-12.348	0.100
547.300	-19.250	0.100
547.400	-8.377	0.100
547.500	-17.971	0.100
547.600	-21.465	0.100
547.700	-32.980	0.100
547.800	-16.746	0.100
547.900	-32.033	0.100
548.000	-19.108	0.100
548.100	-16.110	0.100
548.200	-16.939	0.100
548.300	-10.884	0.100
548.400	-20.268	0.100
548.500	-21.934	0.100
548.600	-23.991	0.100
548.700	-21.764	0.100
548.800	-14.685	0.100
548.900	-13.942	0.100
549.000	-39.034	0.100
549.100	-16.630	0.100
549.200	-25.757	0.100
549.300	-18.707	0.100
549.400	-17.513	0.100
549.500	-12.927	0.100
549.600	-29.348	0.100
549.700	-31.131	0.100
549.800	-24.529	0.100
549.900	-20.712	0.100
550.000	-17.339	0.100
550.100	-14.530	0.100
550.200	-22.394	0.100
550.300	-24.093	0.100
550.400	-36.822	0.100
550.500	-21.033	0.100
550.600	-14.838	0.100
550.700	-14.358	0.100
550.800	-22.430	0.100
550.900	-38.699	0.100
551.000	-16.682	0.100
551.100	-24.128	0.100
551.200	-22.433	0.100
551.300	-21.664	0.100
551.400	-13.323	0.100
551.500	-19.399	0.100
551.600	-19.946	0.100
551.700	-18.452	0.100
551.800	-20.086	0.100
551.900	-37.239	0.100
552.000	-19.955	0.100
552.100	-19.963	0.100
552.200	-9.905	0.100
552.300	-29.995	0.100
552.400	-14.400	0.100
552.500	-32.800	0.100
552.600	-18.776	0.100
552.700	-21.202	0.100
552.800	-28.591	0.100
552.900	-24.598	0.100
553.000	-26.145	0.100
553.100	-11.502	0.100
553.200	-23.331	0.100
553.300	-24.832	0.100
553.400	-25.786	0.100
553.500	-28.701	0.100
553.600	-11.831	0.100
553.700	-24.526	0.100
553.800	-25.526	0.100
553.900	-16.818	0.100
554.000	-16.451	0.100
554.100	-32.923	0.100
554.200	-25.292	0.100
554.300	-25.094	0.100
554.400	-14.608	0.100
554.500	-28.800	0.100
554.600	-28.583	0.100
554.700	-15.906	0.100
554.800	-21.116	0.100
554.900	-31.183	0.100
555.000	-7.631	0.100
555.100	-20.592	0.100
555.200	-16.802	0.100
555.300	-28.357	0.100
555.400	-31.207	0.100
555.500	-21.045	0.100
555.600	-31.309	0.100
555.700	-19.467	0.100
555.800	-15.866	0.100
555.900	-16.427	0.100
556.000	-22.416	0.100
556.100	-25.934	0.100
556.200	-23.383	0.100
556.300	-12.256	0.100
556.400	-23.335	0.100
556.500	-21.850	0.100
556.600	-21.916	0.100
556.700	-25.863	0.100
556.800	-24.538	0.100
556.900	-30.223	0.100
557.000	-25.676	0.100
557.100	-20.025	0.100
557.200	-34.694	0.100
557.300	-13.969	0.100
557.400	-26.916	0.100
557.500	-20.174	0.100
557.600	-16.611	0.100
557.700	-34.150	0.100
557.800	-12.147	0.100
557.900	-25.968	0.100
558.000	-23.138	0.100
558.100	-30.183	0.100
558.200	-21.579	0.100
558.300	-22.744	0.100
558.400	-22.709	0.100
558.500	-22.379	0.100
558.600	-10.150	0.100
558.700	-29.905	0.100
558.800	-19.492	0.100
558.900	-17.254	0.100
559.000	-27.360	0.100
559.100	-23.214	0.100
559.200	-39.463	0.100
559.300	-4.438	0.100
559.400	-25.813	0.100
559.500	-31.632	0.100
559.600	-30.110	0.100
559.700	-16.370	0.100
559.800	-26.163	0.100
559.900	-4.499	0.100
560.000	-27.930	0.100
560.100	-12.684	0.100
560.200	-28.290	0.100
560.300	-38.216	0.100
560.400	-27.602	0.100
560.500	-16.404	0.100
560.600	-17.869	0.100
560.700	-23.954	0.100
560.800	-36.245	0.100
560.900	-15.319	0.100
561.000	-11.323	0.100
561.100	-14.640	0.100
561.200	-25.291	0.100
561.300	-15.863	0.100
561.400	-39.264	0.100
561.500	-22.675	0.100
561.600	-12.719	0.100
561.700	-16.975	0.100
561.800	-12.035	0.100
561.900	-22.343	0.100
562.000	-29.171	0.100
562.100	-11.472	0.100
562.200	-26.786	0.100
562.300	-32.190	0.100
562.400	-29.682	0.100
562.500	-21.908	0.100
562.600	-27.065	0.100
562.700	-16.582	0.100
562.800	-14.423	0.100
562.900	-25.029	0.100
563.000	-24.735	0.100
563.100	-30.246	0.100
563.200	-3.373	0.100
563.300	-21.331	0.100
563.400	-25.705	0.100
563.500	2.701	0.100
563.600	-12.957	0.100
563.700	-25.322	0.100
563.800	-31.507	0.100
563.900	-13.321	0.100
564.000	-23.066	0.100
564.100	-26.239	0.100
564.200	-12.154	0.100
564.300	-22.082	0.100
564.400	-34.984	0.100
564.500	-36.171	0.100
564.600	-17.603	0.100
564.700	-30.011	0.100
564.800	-15.895	0.100
564.900	-13.437	0.100
565.000	-15.523	0.100
565.100	-34.672	0.100
565.200	-36.012	0.100
565.300	-28.689	0.100
565.400	-23.287	0.100
565.500	-11.120	0.100
565.600	-18.520	0.100
565.700	-23.694	0.100
565.800	-34.084	0.100
565.900	-21.990	0.100
566.000	-24.060	0.100
566.100	-6.856	0.100
566.200	-12.789	0.100
566.300	-20.464	0.100
566.400	-23.582	0.100
566.500	-15.740	0.100
566.600	-21.487	0.100
566.700	-18.268	0.100
566.800	-22.331	0.100
566.900	-22.948	0.100
567.000	-18.065	0.100
567.100	-19.412	0.100
567.200	-22.819	0.100
567.300	-22.290	0.100
567.400	-24.298	0.100
567.500	-15.104	0.100
567.600	-21.107	0.100
567.700	-25.144	0.100
567.800	-26.345	0.100
567.900	-11.526	0.100
568.000	-18.440	0.100
568.100	-15.264	0.100
568.200	-17.363	0.100
568.300	-14.890	0.100
568.400	-24.405	0.100
568.500	-8.924	0.100
568.600	-18.549	0.100
568.700	-28.683	0.100
568.800	-19.391	0.100
568.900	-25.239	0.100
569.000	-20.506	0.100
569.100	-5.827	0.100
569.200	-15.631	0.100
569.300	-20.394	0.100
569.400	-22.643	0.100
569.500	-24.464	0.100
569.600	-24.172	0.100
569.700	-13.502	0.100
569.800	-17.317	0.100
569.900	-22.827	0.100
570.000	-14.102	0.100
570.100	-21.748	0.100
570.200	-28.957	0.100
570.300	-17.619	0.100
570.400	-28.017	0.100
570.500	-8.127	0.100
570.600	-24.518	0.100
570.700	-17.822	0.100
570.800	-23.488	0.100
570.900	-16.645	0.100
571.000	-16.180	0.100
571.100	-30.014	0.100
571.200	-12.046	0.100
571.300	-21.196	0.100
571.400	-35.539	0.100
571.500	-23.033	0.100
571.600	-23.131	0.100
571.700	-8.180	0.100
571.800	-24.134	0.100
571.900	-24.623	0.100
572.000	-16.890	0.100
572.100	-23.185	0.100
572.200	-15.118	0.100
572.300	-10.731	0.100
572.400	-18.387	0.100
572.500	-18.511	0.100
572.600	-24.273	0.100
572.700	-23.340	0.100
572.800	-23.041	0.100
572.900	-12.344	0.100
573.000	-27.030	0.100
573.100	-26.873	0.100
573.200	-22.555	0.100
573.300	-15.261	0.100
573.400	-21.815	0.100
573.500	-8.431	0.100
573.600	-18.822	0.100
573.700	-16.416	0.100
573.800	-19.825	0.100
573.900	-20.059	0.100
574.000	-12.821	0.100
574.100	-27.565	0.100
574.200	-16.046	0.100
574.300	-16.304	0.100
574.400	-12.006	0.100
574.500	-40.397	0.100
574.600	-14.290	0.100
574.700	-31.732	0.100
574.800	-33.243	0.100
574.900	-6.535	0.100
575.000	-5.268	0.100
575.100	-22.535	0.100
575.200	-24.827	0.100
575.300	-19.523	0.100
575.400	-24.057	0.100
575.500	-20.033	0.100
575.600	-9.857	0.100
575.700	-14.553	0.100
575.800	-21.040	0.100
575.900	-15.464	0.100
576.000	-20.501	0.100
576.100	-22.592	0.100
576.200	-25.524	0.100
576.300	-15.754	0.100
576.400	-13.016	0.100
576.500	-13.258	0.100
576.600	-28.762	0.100
576.700	-22.550	0.100
576.800	-17.572	0.100
576.900	-17.853	0.100
577.000	-15.551	0.100
577.100	-6.390	0.100
577.200	-27.044	0.100
577.300	-9.155	0.100
577.400	-28.127	0.100
577.500	-22.593	0.100
577.600	-21.879	0.100
577.700	-15.564	0.100
577.800	-28.814	0.100
577.900	-13.264	0.100
578.000	-22.629	0.100
578.100	-6.725	0.100
578.200	-26.702	0.100
578.300	-14.324	0.100
578.400	-20.923	0.100
578.500	-16.852	0.100
578.600	-34.253	0.100
578.700	-22.864	0.100
578.800	-13.587	0.100
578.900	-20.617	0.100
579.000	-5.646	0.100
579.100	-11.898	0.100
579.200	-27.809	0.100
579.300	-15.502	0.100
579.400	-20.567	0.100
579.500	-20.712	0.100
579.600	-7.538	0.100
579.700	-21.896	0.100
579.800	-15.475	0.100
579.900	-26.104	0.100
580.000	-16.907	0.100
580.100	-28.663	0.100
580.200	-19.585	0.100
580.300	-17.320	0.100
580.400	-32.490	0.100
580.500	-2.138	0.100
580.600	-14.581	0.100
580.700	-20.919	0.100
580.800	-23.777	0.100
580.900	-19.576	0.100
581.000	-16.908	0.100
581.100	-18.071	0.100
581.200	6.840	0.100
581.300	-16.142	0.100
581.400	-10.194	0.100
581.500	-24.019	0.100
581.600	-28.416	0.100
581.700	-12.619	0.100
581.800	-34.688	0.100
581.900	-13.635	0.100
582.000	-11.666	0.100
582.100	-4.955	0.100
582.200	-25.873	0.100
582.300	-14.490	0.100
582.400	-14.372	0.100
582.500	-11.550	0.100
582.600	-23.855	0.100
582.700	-21.917	0.100
582.800	-7.952	0.100
582.900	-12.133	0.100
583.000	-14.881	0.100
583.100	-25.343	0.100
583.200	-20.421	0.100
583.300	-19.939	0.100
583.400	-18.567	0.100
583.500	-17.788	0.100
583.600	-19.887	0.100
583.700	-9.026	0.100
583.800	-17.203	0.100
583.900	-19.430	0.100
584.000	-23.623	0.100
584.100	-10.284	0.100
584.200	-25.182	0.100
584.300	-16.598	0.100
584.400	-14.151	0.100
584.500	-12.220	0.100
584.600	-18.369	0.100
584.700	-9.711	0.100
584.800	-25.779	0.100
584.900	-29.866	0.100
585.000	-7.587	0.100
585.100	-19.267	0.100
585.200	-17.852	0.100
585.300	-18.190	0.100
585.400	-15.302	0.100
585.500	-19.200	0.100
585.600	-18.356	0.100
585.700	-11.106	0.100
585.800	-19.202	0.100
585.900	-14.125	0.100
586.000	-15.621	0.100
586.100	-15.998	0.100
586.200	-16.285	0.100
586.300	-15.469	0.100
586.400	-20.908	0.100
586.500	-15.636	0.100
586.600	-7.767	0.100
586.700	-20.616	0.100
586.800	-20.097	0.100
586.900	-16.980	0.100
587.000	-20.862	0.100
587.100	-22.086	0.100
587.200	-15.794	0.100
587.300	-29.739	0.100
587.400	-1.267	0.100
587.500	-16.733	0.100
587.600	-7.462	0.100
587.700	-15.888	0.100
587.800	-17.869	0.100
587.900	-16.477	0.100
588.000	-16.551	0.100
588.100	-20.040	0.100
588.200	-15.958	0.100
588.300	-4.562	0.100
588.400	-15.243	0.100
588.500	-17.104	0.100
588.600	-27.409	0.100
588.700	-12.738	0.100
588.800	-17.799	0.100
588.900	-17.617	0.100
589.000	-8.333	0.100
589.100	-26.402	0.100
589.200	-15.401	0.100
589.300	-21.345	0.100
589.400	-13.850	0.100
589.500	-31.096	0.100
589.600	-21.086	0.100
589.700	1.136	0.100
589.800	-11.927	0.100
589.900	-30.663	0.100
590.000	0.614	0.100
590.100	-17.679	0.100
590.200	-15.371	0.100
590.300	-8.924	0.100
590.400	-13.058	0.100
590.500	-12.331	0.100
590.600	-29.440	0.100
590.700	-30.312	0.100
590.800	-12.726	0.100
590.900	-18.383	0.100
591.000	-11.790	0.100
591.100	-4.471	0.100
591.200	-19.916	0.100
591.300	-26.193	0.100
591.400	-14.308	0.100
591.500	-13.880	0.100
591.600	-6.822	0.100
591.700	-28.188	0.100
591.800	-27.058	0.100
591.900	-15.706	0.100
592.000	-18.371	0.100
592.100	-17.378	0.100
592.200	-7.256	0.100
592.300	-18.039	0.100
592.400	-27.891	0.100
592.500	-17.674	0.100
592.600	-20.350	0.100
592.700	-24.472	0.100
592.800	-18.919	0.100
592.900	-18.536	0.100
593.000	-13.435	0.100
593.100	-20.883	0.100
593.200	-3.393	0.100
593.300	-19.396	0.100
593.400	-23.014	0.100
593.500	-4.782	0.100
593.600	-25.101	0.100
593.700	-33.558	0.100
593.800	-10.371	0.100
593.900	-13.229	0.100
594.000	-27.608	0.100
594.100	-20.038	0.100
594.200	-7.396	0.100
594.300	-14.752	0.100
594.400	-12.555	0.100
594.500	-19.033	0.100
594.600	-8.711	0.100
594.700	-16.678	0.100
594.800	-20.826	0.100
594.900	-21.392	0.100
595.000	-15.156	0.100
595.100	-21.838	0.100
595.200	-2.115	0.100
595.300	-36.241	0.100
595.400	-6.019	0.100
595.500	-25.127	0.100
595.600	-15.364	0.100
595.700	-11.567	0.100
595.800	-24.088	0.100
595.900	-0.407	0.100
596.000	-15.569	0.100
596.100	-31.219	0.100
596.200	-17.419	0.100
596.300	-18.864	0.100
596.400	-20.421	0.100
596.500	-16.621	0.100
596.600	-16.374	0.100
596.700	-1.520	0.100
596.800	-21.810	0.100
596.900	-12.323	0.100
597.000	-18.225	0.100
597.100	-20.136	0.100
597.200	-21.715	0.100
597.300	-7.852	0.100
597.400	-15.509	0.100
597.500	-24.920	0.100
597.600	-11.631	0.100
597.700	-7.523	0.100
597.800	-1.441	0.100
597.900	-22.240	0.100
598.000	-21.268	0.100
598.100	-17.790	0.100
598.200	-6.488	0.100
598.300	-4.591	0.100
598.400	-13.130	0.100
598.500	-4.563	0.100
598.600	-20.379	0.100
598.700	-15.393	0.100
598.800	-12.164	0.100
598.900	-22.885	0.100
599.000	-4.638	0.100
599.100	-6.911	0.100
599.200	-11.470	0.100
599.300	-19.124	0.100
599.400	-18.908	0.100
599.500	-17.333	0.100
599.600	-15.937	0.100
599.700	-19.977	0.100
599.800	-8.353	0.100
599.900	-15.996	0.100
600.000	-22.576	0.100
600.100	-13.210	0.100
600.200	-18.337	0.100
600.300	-0.577	0.100
600.400	-35.673	0.100
600.500	-8.605	0.100
600.600	-10.630	0.100
600.700	-14.405	0.100
600.800	-18.171	0.100
600.900	-9.933	0.100
601.000	-13.981	0.100
601.100	-14.065	0.100
601.200	-18.111	0.100
601.300	-14.115	0.100
601.400	-18.795	0.100
601.500	0.143	0.100
601.600	-15.161	0.100
601.700	-18.465	0.100
601.800	-18.736	0.100
601.900	-11.990	0.100
602.000	-26.316	0.100
602.100	-8.692	0.100
602.200	-16.758	0.100
602.300	3.420	0.100
602.400	-27.587	0.100
602.500	-13.132	0.100
602.600	-19.270	0.100
602.700	-7.735	0.100
602.800	2.679	0.100
602.900	-6.717	0.100
603.000	-23.006	0.100
603.100	-12.299	0.100
603.200	-20.976	0.100
603.300	-4.145	0.100
603.400	-11.677	0.100
603.500	-13.313	0.100
603.600	-14.311	0.100
603.700	-27.192	0.100
603.800	0.056	0.100
603.900	-20.528	0.100
604.000	-17.565	0.100
604.100	-11.181	0.100
604.200	-13.624	0.100
604.300	-27.187	0.100
604.400	-10.901	0.100
604.500	-1.101	0.100
604.600	-23.659	0.100
604.700	-7.639	0.100
604.800	-5.867	0.100
604.900	-9.754	0.100
605.000	-8.885	0.100
605.100	-29.079	0.100
605.200	-15.224	0.100
605.300	1.751	0.100
605.400	-14.279	0.100
605.500	-18.112	0.100
605.600	-11.050	0.100
605.700	-25.454	0.100
605.800	-0.429	0.100
605.900	-0.543	0.100
606.000	-4.787	0.100
606.100	-17.144	0.100
606.200	-10.873	0.100
606.300	-18.373	0.100
606.400	-9.349	0.100
606.500	-9.619	0.100
606.600	-24.209	0.100
606.700	-5.553	0.100
606.800	-22.093	0.100
606.900	-8.744	0.100
607.000	-21.488	0.100
607.100	-6.536	0.100
607.200	-10.513	0.100
607.300	-15.813	0.100
607.400	-18.550	0.100
607.500	-9.998	0.100
607.600	-15.122	0.100
607.700	-4.365	0.100
607.800	-2.865	0.100
607.900	-21.869	0.100
608.000	-12.682	0.100
608.100	-14.177	0.100
608.200	-9.756	0.100
608.300	-30.887	0.100
608.400	-1.183	0.100
608.500	-14.224	0.100
608.600	-11.949	0.100
608.700	-25.348	0.100
608.800	-7.275	0.100
608.900	-18.612	0.100
609.000	-16.888	0.100
609.100	-6.999	0.100
609.200	-26.597	0.100
609.300	-15.698	0.100
609.400	-19.069	0.100
609.500	-5.432	0.100
609.600	-21.568	0.100
609.700	-12.133	0.100
609.800	-4.343	0.100
609.900	-18.240	0.100
610.000	-11.260	0.100
610.100	-10.849	0.100
610.200	-19.914	0.100
610.300	-12.640	0.100
610.400	-16.507	0.100
610.500	-23.860	0.100
610.600	-7.719	0.100
610.700	-20.813	0.100
610.800	-3.994	0.100
610.900	-6.455	0.100
611.000	-19.246	0.100
611.100	-11.699	0.100
611.200	-13.850	0.100
611.300	-10.116	0.100
611.400	-26.734	0.100
611.500	-17.026	0.100
611.600	-10.541	0.100
611.700	-26.605	0.100
611.800	-15.301	0.100
611.900	-14.393	0.100
612.000	-4.205	0.100
612.100	2.336	0.100
612.200	-19.152	0.100
612.300	-12.852	0.100
612.400	-21.053	0.100
612.500	0.010	0.100
612.600	-9.524	0.100
612.700	-20.011	0.100
612.800	-23.970	0.100
612.900	-21.125	0.100
613.000	-18.440	0.100
613.100	-18.865	0.100
613.200	-16.005	0.100
613.300	-18.050	0.100
613.400	-25.569	0.100
613.500	-6.923	0.100
613.600	-18.811	0.100
613.700	-19.053	0.100
613.800	-16.178	0.100
613.900	-0.971	0.100
614.000	-24.456	0.100
614.100	-10.599	0.100
614.200	-24.701	0.100
614.300	-27.894	0.100
614.400	-17.925	0.100
614.500	-4.327	0.100
614.600	-8.772	0.100
614.700	-5.581	0.100
614.800	-9.485	0.100
614.900	-14.244	0.100
615.000	-30.157	0.100
615.100	-8.540	0.100
615.200	-12.288	0.100
615.300	-9.702	0.100
615.400	-8.900	0.100
615.500	-12.074	0.100
615.600	-19.543	0.100
615.700	-11.373	0.100
615.800	-27.526	0.100
615.900	7.697	0.100
616.000	-10.206	0.100
616.100	-27.799	0.100
616.200	1.595	0.100
616.300	-18.071	0.100
616.400	-27.356	0.100
616.500	-15.770	0.100
616.600	-3.112	0.100
616.700	-5.568	0.100
616.800	-27.611	0.100
616.900	-17.176	0.100
617.000	-8.106	0.100
617.100	-19.009	0.100
617.200	-9.479	0.100
617.300	-14.790	0.100
617.400	-8.669	0.100
617.500	-18.207	0.100
617.600	-6.054	0.100
617.700	-10.383	0.100
617.800	-15.732	0.100
617.900	-18.508	0.100
618.000	-6.603	0.100
618.100	-12.964	0.100
618.200	-11.148	0.100
618.300	-11.241	0.100
618.400	-13.850	0.100
618.500	-19.368	0.100
618.600	-11.876	0.100
618.700	-15.644	0.100
618.800	-29.221	0.100
618.900	-25.642	0.100
619.000	-15.207	0.100
619.100	-10.775	0.100
619.200	-9.497	0.100
619.300	-9.619	0.100
619.400	-18.563	0.100
619.500	-22.232	0.100
619.600	-9.367	0.100
619.700	-12.477	0.100
619.800	-19.387	0.100
619.900	-12.634	0.100
620.000	-14.940	0.100
620.100	-3.785	0.100
620.200	-9.162	0.100
620.300	-0.498	0.100
620.400	-27.972	0.100
620.500	-17.808	0.100
620.600	-12.901	0.100
620.700	-26.278	0.100
620.800	-7.686	0.100
620.900	-5.300	0.100
621.000	-8.461	0.100
621.100	-16.771	0.100
621.200	-15.201	0.100
621.300	-22.246	0.100
621.400	-13.720	0.100
621.500	-8.270	0.100
621.600	-17.543	0.100
621.700	-14.952	0.100
621.800	-16.877	0.100
621.900	-12.587	0.100
622.000	-8.864	0.100
622.100	-11.655	0.100
622.200	-17.522	0.100
622.300	-34.826	0.100
622.400	-12.798	0.100
622.500	-8.947	0.100
622.600	-5.643	0.100
622.700	-22.317	0.100
622.800	-6.515	0.100
622.900	-11.960	0.100
623.000	-10.393	0.100
623.100	-12.113	0.100
623.200	-19.418	0.100
623.300	-17.934	0.100
623.400	-24.022	0.100
623.500	-14.379	0.100
623.600	-19.084	0.100
623.700	-20.426	0.100
623.800	-20.720	0.100
623.900	-11.804	0.100
624.000	-23.055	0.100
624.100	-7.002	0.100
624.200	-22.034	0.100
624.300	-13.828	0.100
624.400	-12.219	0.100
624.500	-38.769	0.100
624.600	-19.871	0.100
624.700	3.269	0.100
624.800	-17.322	0.100
624.900	-15.254	0.100
625.000	-16.093	0.100
625.100	-22.152	0.100
625.200	2.194	0.100
625.300	-7.621	0.100
625.400	-19.756	0.100
625.500	-25.540	0.100
625.600	-4.732	0.100
625.700	-6.083	0.100
625.800	-15.660	0.100
625.900	-10.258	0.100
626.000	-12.343	0.100
626.100	-19.429	0.100
626.200	-13.404	0.100
626.300	-7.410	0.100
626.400	-15.410	0.100
626.500	-22.124	0.100
626.600	-4.650	0.100
626.700	-9.511	0.100
626.800	-5.644	0.100
626.900	-11.418	0.100
627.000	-16.260	0.100
627.100	1.497	0.100
627.200	-14.617	0.100
627.300	-7.795	0.100
627.400	-11.485	0.100
627.500	-20.156	0.100
627.600	-17.755	0.100
627.700	-16.964	0.100
627.800	-7.658	0.100
627.900	-10.807	0.100
628.000	-14.872	0.100
628.100	-18.697	0.100
628.200	0.899	0.100
628.300	-23.196	0.100
628.400	-14.481	0.100
628.500	-6.717	0.100
628.600	-15.887	0.100
628.700	-11.131	0.100
628.800	-18.522	0.100
628.900	-8.466	0.100
629.000	-12.792	0.100
629.100	0.643	0.100
629.200	-11.937	0.100
629.300	-8.319	0.100
629.400	-14.339	0.100
629.500	-17.296	0.100
629.600	-12.100	0.100
629.700	-16.197	0.100
629.800	-17.755	0.100
629.900	-20.129	0.100
630.000	3.144	0.100
630.100	-22.716	0.100
630.200	-19.599	0.100
630.300	1.977	0.100
630.400	-9.547	0.100
630.500	-22.954	0.100
630.600	-19.941	0.100
630.700	-5.573	0.100
630.800	-24.414	0.100
630.900	-4.149	0.100
631.000	6.168	0.100
631.100	-9.620	0.100
631.200	6.360	0.100
631.300	-15.069	0.100
631.400	-0.689	0.100
631.500	-2.799	0.100
631.600	0.445	0.100
631.700	-8.663	0.100
631.800	-6.145	0.100
631.900	-2.320	0.100
632.000	-5.326	0.100
632.100	2.136	0.100
632.200	5.572	0.100
632.300	-11.915	0.100
632.400	3.658	0.100
632.500	10.632	0.100
632.600	7.731	0.100
632.700	15.388	0.100
632.800	17.984	0.100
632.900	-8.893	0.100
633.000	7.649	0.100
633.100	-10.243	0.100
633.200	12.110	0.100
633.300	2.516	0.100
633.400	8.570	0.100
633.500	7.083	0.100
633.600	21.563	0.100
633.700	4.369	0.100
633.800	-4.049	0.100
633.900	-14.492	0.100
634.000	14.518	0.100
634.100	3.838	0.100
634.200	11.892	0.100
634.300	1.832	0.100
634.400	2.702	0.100
634.500	6.197	0.100
634.600	1.471	0.100
634.700	4.239	0.100
634.800	15.179	0.100
634.900	0.213	0.100
635.000	15.310	0.100
635.100	12.214	0.100
635.200	-10.713	0.100
635.300	16.862	0.100
635.400	8.299	0.100
635.500	-5.955	0.100
635.600	14.212	0.100
635.700	14.556	0.100
635.800	11.895	0.100
635.900	9.046	0.100
636.000	-1.857	0.100
636.100	1.828	0.100
636.200	2.465	0.100
636.300	-4.901	0.100
636.400	-7.199	0.100
636.500	14.824	0.100
636.600	21.366	0.100
636.700	8.126	0.100
636.800	14.226	0.100
636.900	8.129	0.100
637.000	3.670	0.100
637.100	9.192	0.100
637.200	4.992	0.100
637.300	-0.923	0.100
637.400	4.615	0.100
637.500	5.331	0.100
637.600	12.435	0.100
637.700	8.173	0.100
637.800	2.293	0.100
637.900	2.517	0.100
638.000	14.658	0.100
638.100	4.257	0.100
638.200	5.085	0.100
638.300	13.549	0.100
638.400	11.429	0.100
638.500	12.814	0.100
638.600	12.765	0.100
638.700	-2.707	0.100
638.800	17.661	0.100
638.900	13.676	0.100
639.000	1.270	0.100
639.100	-0.893	0.100
639.200	6.725	0.100
639.300	19.027	0.100
639.400	0.283	0.100
639.500	11.424	0.100
639.600	12.235	0.100
639.700	5.500	0.100
639.800	17.330	0.100
639.900	6.234	0.100
640.000	7.688	0.100
640.100	14.812	0.100
640.200	23.494	0.100
640.300	11.765	0.100
640.400	4.907	0.100
640.500	8.644	0.100
640.600	25.858	0.100
640.700	3.371	0.100
640.800	-4.671	0.100
640.900	23.065	0.100
641.000	11.289	0.100
641.100	5.575	0.100
641.200	25.329	0.100
641.300	17.194	0.100
641.400	5.520	0.100
641.500	5.881	0.100
641.600	16.064	0.100
641.700	6.332	0.100
641.800	11.065	0.100
641.900	8.888	0.100
642.000	14.514	0.100
642.100	2.704	0.100
642.200	29.303	0.100
642.300	10.723	0.100
642.400	26.944	0.100
642.500	18.104	0.100
642.600	29.837	0.100
642.700	19.122	0.100
642.800	11.548	0.100
642.900	15.385	0.100
643.000	11.346	0.100
643.100	16.450	0.100
643.200	9.695	0.100
643.300	12.420	0.100
643.400	8.744	0.100
643.500	11.113	0.100
643.600	21.928	0.100
643.700	19.403	0.100
643.800	25.010	0.100
643.900	11.888	0.100
644.000	13.477	0.100
644.100	-1.830	0.100
644.200	21.241	0.100
644.300	17.355	0.100
644.400	18.805	0.100
644.500	16.033	0.100
644.600	10.436	0.100
644.700	6.147	0.100
644.800	28.900	0.100
644.900	12.258	0.100
645.000	29.350	0.100
645.100	14.959	0.100
645.200	38.428	0.100
645.300	26.069	0.100
645.400	13.064	0.100
645.500	18.081	0.100
645.600	18.866	0.100
645.700	20.954	0.100
645.800	23.555	0.100
645.900	18.061	0.100
646.000	14.990	0.100
646.100	14.139	0.100
646.200	20.436	0.100
646.300	28.755	0.100
646.400	4.218	0.100
646.500	19.226	0.100
646.600	11.590	0.100
646.700	21.750	0.100
646.800	33.747	0.100
646.900	29.709	0.100
647.000	23.950	0.100
647.100	17.865	0.100
647.200	32.784	0.100
647.300	12.419	0.100
647.400	27.864	0.100
647.500	12.504	0.100
647.600	29.931	0.100
647.700	11.557	0.100
647.800	19.578	0.100
647.900	11.066	0.100
648.000	13.647	0.100
648.100	38.750	0.100
648.200	22.935	0.100
648.300	29.943	0.100
648.400	12.037	0.100
648.500	17.839	0.100
648.600	13.851	0.100
648.700	27.007	0.100
648.800	21.808	0.100
648.900	8.621	0.100
649.000	25.408	0.100
649.100	34.548	0.100
649.200	15.265	0.100
649.300	24.326	0.100
649.400	13.676	0.100
649.500	39.090	0.100
649.600	26.024	0.100
649.700	13.497	0.100
649.800	28.855	0.100
649.900	19.396	0.100
650.000	24.386	0.100
650.100	46.287	0.100
650.200	18.911	0.100
650.300	16.534	0.100
650.400	27.958	0.100
650.500	8.994	0.100
650.600	32.690	0.100
650.700	29.283	0.100
650.800	33.389	0.100
650.900	23.579	0.100
651.000	13.241	0.100
651.100	27.160	0.100
651.200	17.038	0.100
651.300	19.025	0.100
651.400	28.235	0.100
651.500	21.599	0.100
651.600	30.027	0.100
651.700	10.087	0.100
651.800	27.995	0.100
651.900	29.615	0.100
652.000	14.628	0.100
652.100	25.128	0.100
652.200	29.051	0.100
652.300	24.274	0.100
652.400	24.579	0.100
652.500	33.039	0.100
652.600	28.246	0.100
652.700	30.544	0.100
652.800	11.203	0.100
652.900	32.981	0.100
653.000	16.692	0.100
653.100	22.820	0.100
653.200	23.220	0.100
653.300	30.571	0.100
653.400	29.058	0.100
653.500	28.394	0.100
653.600	21.782	0.100
653.700	32.755	0.100
653.800	27.224	0.100
653.900	30.510	0.100
654.000	25.702	0.100
654.100	38.936	0.100
654.200	22.738	0.100
654.300	39.389	0.100
654.400	23.573	0.100
654.500	13.666	0.100
654.600	43.022	0.100
654.700	37.654	0.100
654.800	26.991	0.100
654.900	39.352	0.100
655.000	21.665	0.100
655.100	38.947	0.100
655.200	21.538	0.100
655.300	33.013	0.100
655.400	22.765	0.100
655.500	28.410	0.100
655.600	35.006	0.100
655.700	30.229	0.100
655.800	27.524	0.100
655.900	20.221	0.100
656.000	29.163	0.100
656.100	32.898	0.100
656.200	28.402	0.100
656.300	39.069	0.100
656.400	28.810	0.100
656.500	32.224	0.100
656.600	34.536	0.100
656.700	30.926	0.100
656.800	27.205	0.100
656.900	31.284	0.100
657.000	36.893	0.100
657.100	29.711	0.100
657.200	14.936	0.100
657.300	15.155	0.100
657.400	38.190	0.100
657.500	29.666	0.100
657.600	28.637	0.100
657.700	24.976	0.100
657.800	33.762	0.100
657.900	28.872	0.100
658.000	31.487	0.100
658.100	48.223	0.100
658.200	30.577	0.100
658.300	25.615	0.100
658.400	25.600	0.100
658.500	36.259	0.100
658.600	24.836	0.100
658.700	27.291	0.100
658.800	42.894	0.100
658.900	25.803	0.100
659.000	27.662	0.100
659.100	30.637	0.100
659.200	37.323	0.100
659.300	34.144	0.100
659.400	39.277	0.100
659.500	19.804	0.100
659.600	38.103	0.100
659.700	40.328	0.100
659.800	17.407	0.100
659.900	36.873	0.100
660.000	25.046	0.100
660.100	29.767	0.100
660.200	44.091	0.100
660.300	25.698	0.100
660.400	39.496	0.100
660.500	35.899	0.100
660.600	27.412	0.100
660.700	29.311	0.100
660.800	39.297	0.100
660.900	39.754	0.100
661.000	27.603	0.100
661.100	24.085	0.100
661.200	35.644	0.100
661.300	25.323	0.100
661.400	24.662	0.100
661.500	32.969	0.100
661.600	35.345	0.100
661.700	24.112	0.100
661.800	19.983	0.100
661.900	44.315	0.100
662.000	39.329	0.100
662.100	28.727	0.100
662.200	28.832	0.100
662.300	33.432	0.100
662.400	22.045	0.100
662.500	18.556	0.100
662.600	32.442	0.100
662.700	16.107	0.100
662.800	39.370	0.100
662.900	33.522	0.100
663.000	27.007	0.100
663.100	28.603	0.100
663.200	38.268	0.100
663.300	42.356	0.100
663.400	27.954	0.100
663.500	38.248	0.100
663.600	49.825	0.100
663.700	26.971	0.100
663.800	36.945	0.100
663.900	35.778	0.100
664.000	49.472	0.100
664.100	27.120	0.100
664.200	21.921	0.100
664.300	37.729	0.100
664.400	35.814	0.100
664.500	29.353	0.100
664.600	35.577	0.100
664.700	28.691	0.100
664.800	34.881	0.100
664.900	35.659	0.100
665.000	23.563	0.100
665.100	40.213	0.100
665.200	25.236	0.100
665.300	40.163	0.100
665.400	27.533	0.100
665.500	35.270	0.100
665.600	25.657	0.100
665.700	27.869	0.100
665.800	19.142	0.100
665.900	33.565	0.100
666.000	38.007	0.100
666.100	32.793	0.100
666.200	34.533	0.100
666.300	45.231	0.100
666.400	47.492	0.100
666.500	19.545	0.100
666.600	37.961	0.100
666.700	33.533	0.100
666.800	30.927	0.100
666.900	33.167	0.100
667.000	40.290	0.100
667.100	44.927	0.100
667.200	39.354	0.100
667.300	30.498	0.100
667.400	32.900	0.100
667.500	22.052	0.100
667.600	37.156	0.100
667.700	25.653	0.100
667.800	23.958	0.100
667.900	28.888	0.100
668.000	30.251	0.100
668.100	35.587	0.100
668.200	48.084	0.100
668.300	42.155	0.100
668.400	33.697	0.100
668.500	32.012	0.100
668.600	29.970	0.100
668.700	31.030	0.100
668.800	29.349	0.100
668.900	35.437	0.100
669.000	37.114	0.100
669.100	27.424	0.100
669.200	34.934	0.100
669.300	36.390	0.100
669.400	40.088	0.100
669.500	28.737	0.100
669.600	17.371	0.100
669.700	37.047	0.100
669.800	30.094	0.100
669.900	31.188	0.100
670.000	35.066	0.100
670.100	25.771	0.100
670.200	35.408	0.100
670.300	36.297	0.100
670.400	35.688	0.100
670.500	30.983	0.100
670.600	34.041	0.100
670.700	44.208	0.100
670.800	27.665	0.100
670.900	33.169	0.100
671.000	38.424	0.100
671.100	41.956	0.100
671.200	31.082	0.100
671.300	16.185	0.100
671.400	30.909	0.100
671.500	37.003	0.100
671.600	32.952	0.100
671.700	44.170	0.100
671.800	21.919	0.100
671.900	29.179	0.100
672.000	25.421	0.100
672.100	37.196	0.100
672.200	32.285	0.100
672.300	37.823	0.100
672.400	33.129	0.100
672.500	28.389	0.100
672.600	32.379	0.100
672.700	37.406	0.100
672.800	27.408	0.100
672.900	37.723	0.100
673.000	26.738	0.100
673.100	36.025	0.100
673.200	39.276	0.100
673.300	26.397	0.100
673.400	33.102	0.100
673.500	29.456	0.100
673.600	41.976	0.100
673.700	35.515	0.100
673.800	32.441	0.100
673.900	26.156	0.100
674.000	21.864	0.100
674.100	41.618	0.100
674.200	30.166	0.100
674.300	45.931	0.100
674.400	30.367	0.100
674.500	33.467	0.100
674.600	21.148	0.100
674.700	52.813	0.100
674.800	35.541	0.100
674.900	28.990	0.100
675.000	23.114	0.100
675.100	53.309	0.100
675.200	31.430	0.100
675.300	22.039	0.100
675.400	34.069	0.100
675.500	22.329	0.100
675.600	32.467	0.100
675.700	37.797	0.100
675.800	22.210	0.100
675.900	32.898	0.100
676.000	34.735	0.100
676.100	44.002	0.100
676.200	34.024	0.100
676.300	40.097	0.100
676.400	33.767	0.100
676.500	19.412	0.100
676.600	25.770	0.100
676.700	32.042	0.100
676.800	22.399	0.100
676.900	28.756	0.100
677.000	43.469	0.100
677.100	24.606	0.100
677.200	26.160	0.100
677.300	35.193	0.100
677.400	39.539	0.100
677.500	23.660	0.100
677.600	28.005	0.100
677.700	30.411	0.100
677.800	19.074	0.100
677.900	45.421	0.100
678.000	42.652	0.100
678.100	31.784	0.100
678.200	28.907	0.100
678.300	18.619	0.100
678.400	34.396	0.100
678.500	29.526	0.100
678.600	27.492	0.100
678.700	45.959	0.100
678.800	31.145	0.100
678.900	42.484	0.100
679.000	14.844	0.100
679.100	33.298	0.100
679.200	38.661	0.100
679.300	24.638	0.100
679.400	34.876	0.100
679.500	28.033	0.100
679.600	26.858	0.100
679.700	15.895	0.100
679.800	34.996	0.100
679.900	30.989	0.100
680.000	20.829	0.100
680.100	38.610	0.100
680.200	31.489	0.100
680.300	27.935	0.100
680.400	30.867	0.100
680.500	33.012	0.100
680.600	27.576	0.100
680.700	23.955	0.100
680.800	35.787	0.100
680.900	36.840	0.100
681.000	38.138	0.100
681.100	37.930	0.100
681.200	37.358	0.100
681.300	31.612	0.100
681.400	38.582	0.100
681.500	34.457	0.100
681.600	26.801	0.100
681.700	25.392	0.100
681.800	29.526	0.100
681.900	24.028	0.100
682.000	30.738	0.100
682.100	35.465	0.100
682.200	28.864	0.100
682.300	39.506	0.100
682.400	34.762	0.100
682.500	20.720	0.100
682.600	31.972	0.100
682.700	31.305	0.100
682.800	31.593	0.100
682.900	33.782	0.100
683.000	30.408	0.100
683.100	40.920	0.100
683.200	19.448	0.100
683.300	18.296	0.100
683.400	29.471	0.100
683.500	18.278	0.100
683.600	36.602	0.100
683.700	42.019	0.100
683.800	27.768	0.100
683.900	28.188	0.100
684.000	31.840	0.100
684.100	30.956	0.100
684.200	29.949	0.100
684.300	19.037	0.100
684.400	31.403	0.100
684.500	39.088	0.100
684.600	35.827	0.100
684.700	21.084	0.100
684.800	33.426	0.100
684.900	32.760	0.100
685.000	31.949	0.100
685.100	28.561	0.100
685.200	19.610	0.100
685.300	19.149	0.100
685.400	31.857	0.100
685.500	29.688	0.100
685.600	21.751	0.100
685.700	27.502	0.100
685.800	25.944	0.100
685.900	32.266	0.100
686.000	21.179	0.100
686.100	41.800	0.100
686.200	28.733	0.100
686.300	27.865	0.100
686.400	26.926	0.100
686.500	21.720	0.100
686.600	25.169	0.100
686.700	30.546	0.100
686.800	38.256	0.100
686.900	23.667	0.100
687.000	29.644	0.100
687.100	24.491	0.100
687.200	26.471	0.100
687.300	37.740	0.100
687.400	32.105	0.100
687.500	14.077	0.100
687.600	37.764	0.100
687.700	19.287	0.100
687.800	33.985	0.100
687.900	29.341	0.100
688.000	31.369	0.100
688.100	29.745	0.100
688.200	32.280	0.100
688.300	25.791	0.100
688.400	32.782	0.100
688.500	24.210	0.100
688.600	31.680	0.100
688.700	42.322	0.100
688.800	19.389	0.100
688.900	35.166	0.100
689.000	32.231	0.100
689.100	36.565	0.100
689.200	27.726	0.100
689.300	31.489	0.100
689.400	38.872	0.100
689.500	28.309	0.100
689.600	32.617	0.100
689.700	25.127	0.100
689.800	24.300	0.100
689.900	28.523	0.100
690.000	32.049	0.100
690.100	25.180	0.100
690.200	31.234	0.100
690.300	38.436	0.100
690.400	31.601	0.100
690.500	14.575	0.100
690.600	16.527	0.100
690.700	25.489	0.100
690.800	25.594	0.100
690.900	26.429	0.100
691.000	28.361	0.100
691.100	9.304	0.100
691.200	24.131	0.100
691.300	10.659	0.100
691.400	15.004	0.100
691.500	7.798	0.100
691.600	8.421	0.100
691.700	9.856	0.100
691.800	1.951	0.100
691.900	7.809	0.100
692.000	4.467	0.100
692.100	1.948	0.100
692.200	1.500	0.100
692.300	-0.071	0.100
692.400	-6.023	0.100
692.500	1.133	0.100
692.600	1.967	0.100
692.700	-7.723	0.100
692.800	-9.211	0.100
692.900	-14.050	0.100
693.000	-10.538	0.100
693.100	-15.388	0.100
693.200	-18.050	0.100
693.300	-9.495	0.100
693.400	-2.721	0.100
693.500	-8.190	0.100
693.600	-12.165	0.100
693.700	-7.453	0.100
693.800	-19.762	0.100
693.900	-18.739	0.100
694.000	-11.953	0.100
694.100	-19.266	0.100
694.200	-20.714	0.100
694.300	-22.104	0.100
694.400	-32.253	0.100
694.500	-31.367	0.100
694.600	-12.854	0.100
694.700	-19.602	0.100
694.800	-9.067	0.100
694.900	-10.111	0.100
695.000	-22.509	0.100
695.100	-36.486	0.100
695.200	-19.460	0.100
695.300	-24.923	0.100
695.400	-20.936	0.100
695.500	-18.027	0.100
695.600	-17.247	0.100
695.700	-10.165	0.100
695.800	-13.924	0.100
695.900	-15.726	0.100
696.000	-4.104	0.100
696.100	-24.969	0.100
696.200	-23.222	0.100
696.300	-7.074	0.100
696.400	-19.094	0.100
696.500	-18.460	0.100
696.600	-24.007	0.100
696.700	-24.385	0.100
696.800	-23.069	0.100
696.900	-21.940	0.100
697.000	-9.151	0.100
697.100	-27.764	0.100
697.200	-28.300	0.100
697.300	0.193	0.100
697.400	-26.974	0.100
697.500	-22.034	0.100
697.600	-27.969	0.100
697.700	-18.587	0.100
697.800	-2.203	0.100
697.900	-26.704	0.100
698.000	-32.436	0.100
698.100	-20.132	0.100
698.200	-25.626	0.100
698.300	-18.341	0.100
698.400	-13.469	0.100
698.500	-14.801	0.100
698.600	-26.895	0.100
698.700	-16.966	0.100
698.800	-29.923	0.100
698.900	-15.490	0.100
699.000	-19.067	0.100
699.100	-23.571	0.100
699.200	-29.587	0.100
699.300	-20.885	0.100
699.400	-22.543	0.100
699.500	-14.420	0.100
699.600	-20.830	0.100
699.700	-18.138	0.100
699.800	-24.358	0.100
699.900	-12.536	0.100
700.000	-16.641	0.100
700.100	-34.390	0.100
700.200	-23.410	0.100
700.300	-17.622	0.100
700.400	-18.950	0.100
700.500	-26.659	0.100
700.600	-12.741	0.100
700.700	-24.716	0.100
700.800	-34.765	0.100
700.900	-12.544	0.100
701.000	-28.112	0.100
701.100	-15.167	0.100
701.200	-17.580	0.100
701.300	-25.709	0.100
701.400	-25.784	0.100
701.500	-24.096	0.100
701.600	-28.456	0.100
701.700	-17.055	0.100
701.800	-24.303	0.100
701.900	-21.181	0.100
702.000	-25.149	0.100
702.100	-20.198	0.100
702.200	-7.817	0.100
702.300	-17.134	0.100
702.400	-23.003	0.100
702.500	-21.229	0.100
702.600	-12.019	0.100
702.700	-36.701	0.100
702.800	-16.917	0.100
702.900	-26.810	0.100
703.000	-22.840	0.100
703.100	-14.690	0.100
703.200	-23.481	0.100
703.300	-14.970	0.100
703.400	-11.457	0.100
703.500	-24.177	0.100
703.600	-28.834	0.100
703.700	-20.413	0.100
703.800	-31.346	0.100
703.900	-23.460	0.100
704.000	-17.486	0.100
704.100	-35.640	0.100
704.200	-26.807	0.100
704.300	-29.311	0.100
704.400	-23.887	0.100
704.500	-22.033	0.100
704.600	-20.973	0.100
704.700	-11.613	0.100
704.800	-48.516	0.100
704.900	-19.778	0.100
705.000	-28.774	0.100
705.100	-15.808	0.100
705.200	-13.852	0.100
705.300	-26.202	0.100
705.400	-28.031	0.100
705.500	-26.211	0.100
705.600	-26.119	0.100
705.700	-34.782	0.100
705.800	-23.970	0.100
705.900	-19.302	0.100
706.000	-20.517	0.100
706.100	-19.800	0.100
706.200	-23.687	0.100
706.300	-20.501	0.100
706.400	-34.293	0.100
706.500	-21.161	0.100
706.600	-14.864	0.100
706.700	-27.714	0.100
706.800	-23.996	0.100
706.900	-16.981	0.100
707.000	-20.304	0.100
707.100	-21.894	0.100
707.200	-30.616	0.100
707.300	-26.666	0.100
707.400	-27.937	0.100
707.500	-18.485	0.100
707.600	-33.532	0.100
707.700	-16.638	0.100
707.800	-31.285	0.100
707.900	-10.254	0.100
708.000	-14.080	0.100
708.100	-24.718	0.100
708.200	-26.770	0.100
708.300	-16.254	0.100
708.400	-45.693	0.100
708.500	-26.875	0.100
708.600	-20.900	0.100
708.700	-31.778	0.100
708.800	-20.330	0.100
708.900	-22.682	0.100
709.000	-28.343	0.100
709.100	-33.982	0.100
709.200	-15.951	0.100
709.300	-17.611	0.100
709.400	-25.243	0.100
709.500	-20.076	0.100
709.600	-29.179	0.100
709.700	-16.898	0.100
709.800	-37.109	0.100
709.900	-17.938	0.100
710.000	-21.710	0.100
710.100	-22.456	0.100
710.200	-23.784	0.100
710.300	-22.370	0.100
710.400	-21.542	0.100
710.500	-35.449	0.100
710.600	-13.230	0.100
710.700	-27.278	0.100
710.800	-32.663	0.100
710.900	-28.300	0.100
711.000	-23.856	0.100
711.100	-10.357	0.100
711.200	-31.351	0.100
711.300	-23.502	0.100
711.400	-21.847	0.100
711.500	-19.511	0.100
711.600	-18.081	0.100
711.700	-24.043	0.100
711.800	-20.966	0.100
711.900	-24.785	0.100
712.000	-13.597	0.100
712.100	-23.250	0.100
712.200	-20.488	0.100
712.300	-25.073	0.100
712.400	-33.808	0.100
712.500	-26.483	0.100
712.600	-25.342	0.100
712.700	-13.918	0.100
712.800	-20.797	0.100
712.900	-11.316	0.100
713.000	-26.646	0.100
713.100	-25.225	0.100
713.200	-31.247	0.100
713.300	-15.106	0.100
713.400	-18.341	0.100
713.500	-6.890	0.100
713.600	-24.439	0.100
713.700	-31.405	0.100
713.800	-23.524	0.100
713.900	-21.329	0.100
714.000	-19.376	0.100
714.100	-31.717	0.100
714.200	-17.392	0.100
714.300	-22.376	0.100
714.400	-18.853	0.100
714.500	-26.458	0.100
714.600	-15.473	0.100
714.700	-31.608	0.100
714.800	-30.655	0.100
714.900	-31.052	0.100
715.000	-6.392	0.100
715.100	-9.886	0.100
715.200	-31.187	0.100
715.300	-10.250	0.100
715.400	-33.690	0.100
715.500	-20.773	0.100
715.600	-27.554	0.100
715.700	-26.056	0.100
715.800	-38.481	0.100
715.900	-11.945	0.100
716.000	-7.794	0.100
716.100	-30.095	0.100
716.200	-16.576	0.100
716.300	-16.901	0.100
716.400	-29.784	0.100
716.500	-8.883	0.100
716.600	-21.097	0.100
716.700	-36.102	0.100
716.800	-24.609	0.100
716.900	-22.428	0.100
717.000	-23.348	0.100
717.100	-23.831	0.100
717.200	-24.714	0.100
717.300	-8.024	0.100
717.400	-22.035	0.100
717.500	-31.488	0.100
717.600	-13.480	0.100
717.700	-21.009	0.100
717.800	-14.526	0.100
717.900	-29.739	0.100
718.000	-19.516	0.100
718.100	-17.545	0.100
718.200	-24.643	0.100
718.300	-22.061	0.100
718.400	-36.096	0.100
718.500	-20.142	0.100
718.600	-25.471	0.100
718.700	-18.130	0.100
718.800	-19.272	0.100
718.900	-15.560	0.100
719.000	-21.562	0.100
719.100	-22.368	0.100
719.200	-20.875	0.100
719.300	-20.859	0.100
719.400	-25.673	0.100
719.500	-16.583	0.100
719.600	-27.106	0.100
719.700	-3.921	0.100
719.800	3.044	0.100
719.900	-29.328	0.100
720.000	-15.634	0.100
720.100	-14.657	0.100
720.200	-26.685	0.100
720.300	-30.457	0.100
720.400	-35.048	0.100
720.500	-25.393	0.100
720.600	-23.369	0.100
720.700	-26.675	0.100
720.800	-30.340	0.100
720.900	-26.856	0.100
721.000	-29.778	0.100
721.100	-32.266	0.100
721.200	-5.519	0.100
721.300	-15.694	0.100
721.400	-12.866	0.100
721.500	-7.674	0.100
721.600	-26.842	0.100
721.700	-24.674	0.100
721.800	-23.294	0.100
721.900	-16.848	0.100
722.000	-15.170	0.100
722.100	-18.202	0.100
722.200	-10.282	0.100
722.300	-14.604	0.100
722.400	-35.040	0.100
722.500	-17.793	0.100
722.600	-21.191	0.100
722.700	-18.058	0.100
722.800	-21.422	0.100
722.900	-24.994	0.100
723.000	-20.393	0.100
723.100	-33.001	0.100
723.200	-10.205	0.100
723.300	-22.294	0.100
723.400	-12.767	0.100
723.500	-22.327	0.100
723.600	-13.901	0.100
723.700	-34.207	0.100
723.800	-19.896	0.100
723.900	-22.873	0.100
724.000	-18.957	0.100
724.100	-13.037	0.100
724.200	-16.984	0.100
724.300	-23.208	0.100
724.400	-18.112	0.100
724.500	-22.786	0.100
724.600	-25.392	0.100
724.700	-28.035	0.100
724.800	-10.864	0.100
724.900	-13.244	0.100
725.000	-24.089	0.100
725.100	-21.509	0.100
725.200	-1.934	0.100
725.300	-24.086	0.100
725.400	-9.209	0.100
725.500	-18.350	0.100
725.600	-10.634	0.100
725.700	-21.313	0.100
725.800	-18.417	0.100
725.900	-21.124	0.100
726.000	-17.809	0.100
726.100	-15.191	0.100
726.200	-17.254	0.100
726.300	-23.352	0.100
726.400	-21.123	0.100
726.500	-28.897	0.100
726.600	-17.375	0.100
726.700	-10.953	0.100
726.800	-15.887	0.100
726.900	-20.521	0.100
727.000	-10.442	0.100
727.100	-11.291	0.100
727.200	-24.608	0.100
727.300	-14.050	0.100
727.400	-16.333	0.100
727.500	-8.755	0.100
727.600	-33.745	0.100
727.700	-11.625	0.100
727.800	-15.709	0.100
727.900	-27.079	0.100
728.000	-10.697	0.100
728.100	-29.862	0.100
728.200	-15.123	0.100
728.300	-17.846	0.100
728.400	-12.901	0.100
728.500	-18.860	0.100
728.600	-18.183	0.100
728.700	-24.780	0.100
728.800	-15.560	0.100
728.900	-25.884	0.100
729.000	-24.023	0.100
729.100	-12.845	0.100
729.200	-22.820	0.100
729.300	-24.887	0.100
729.400	-13.431	0.100
729.500	-17.354	0.100
729.600	-19.771	0.100
729.700	-14.210	0.100
729.800	-20.911	0.100
729.900	-27.615	0.100
730.000	-28.065	0.100
730.100	-20.962	0.100
730.200	-28.346	0.100
730.300	-14.887	0.100
730.400	-19.502	0.100
730.500	-30.862	0.100
730.600	-12.982	0.100
730.700	-38.481	0.100
730.800	-20.489	0.100
730.900	-14.421	0.100
731.000	-3.050	0.100
731.100	-22.454	0.100
731.200	-27.854	0.100
731.300	-18.905	0.100
731.400	-8.532	0.100
731.500	-7.488	0.100
731.600	-21.942	0.100
731.700	-28.482	0.100
731.800	-18.502	0.100
731.900	-20.654	0.100
732.000	-2.935	0.100
732.100	-23.346	0.100
732.200	-27.295	0.100
732.300	-16.366	0.100
732.400	-27.376	0.100
732.500	-11.464	0.100
732.600	-6.764	0.100
732.700	-33.100	0.100
732.800	-22.382	0.100
732.900	-16.064	0.100
733.000	-14.684	0.100
733.100	-10.400	0.100
733.200	-17.144	0.100
733.300	-16.640	0.100
733.400	-13.382	0.100
733.500	-19.502	0.100
733.600	-11.252	0.100
733.700	-10.796	0.100
733.800	-19.266	0.100
733.900	-27.335	0.100
734.000	-16.995	0.100
734.100	-10.363	0.100
734.200	-17.733	0.100
734.300	-16.129	0.100
734.400	-17.960	0.100
734.500	-21.486	0.100
734.600	-24.085	0.100
734.700	-6.757	0.100
734.800	-25.889	0.100
734.900	-24.746	0.100
735.000	-20.062	0.100
735.100	-9.341	0.100
735.200	-28.412	0.100
735.300	-3.645	0.100
735.400	-9.796	0.100
735.500	1.674	0.100
735.600	-14.358	0.100
735.700	-11.261	0.100
735.800	-25.569	0.100
735.900	-20.603	0.100
736.000	-34.542	0.100
736.100	-19.404	0.100
736.200	-21.352	0.100
736.300	-8.553	0.100
736.400	-20.345	0.100
736.500	-11.125	0.100
736.600	-13.619	0.100
736.700	-9.359	0.100
736.800	-18.519	0.100
736.900	-13.565	0.100
737.000	-22.138	0.100
737.100	-21.970	0.100
737.200	-19.365	0.100
737.300	-6.707	0.100
737.400	-17.329	0.100
737.500	-14.363	0.100
737.600	-9.068	0.100
737.700	-25.436	0.100
737.800	-20.559	0.100
737.900	-16.059	0.100
738.000	-4.693	0.100
738.100	-26.230	0.100
738.200	-17.537	0.100
738.300	-22.362	0.100
738.400	-16.210	0.100
738.500	-22.647	0.100
738.600	-14.459	0.100
738.700	-9.429	0.100
738.800	-30.088	0.100
738.900	-22.555	0.100
739.000	-14.221	0.100
739.100	-19.173	0.100
739.200	0.407	0.100
739.300	-4.767	0.100
739.400	-22.600	0.100
739.500	-19.724	0.100
739.600	-17.998	0.100
739.700	-15.401	0.100
739.800	-26.136	0.100
739.900	-27.287	0.100
740.000	-16.615	0.100
740.100	0.450	0.100
740.200	-19.460	0.100
740.300	-6.234	0.100
740.400	-14.517	0.100
740.500	-15.702	0.100
740.600	1.091	0.100
740.700	-12.670	0.100
740.800	-23.983	0.100
740.900	-12.735	0.100
741.000	1.134	0.100
741.100	-22.559	0.100
741.200	-11.485	0.100
741.300	-10.115	0.100
741.400	-17.000	0.100
741.500	-11.076	0.100
741.600	-7.539	0.100
741.700	-9.574	0.100
741.800	-14.779	0.100
741.900	-17.696	0.100
742.000	-23.102	0.100
742.100	0.491	0.100
742.200	-21.170	0.100
742.300	-12.902	0.100
742.400	-22.893	0.100
742.500	-8.842	0.100
742.600	-28.789	0.100
742.700	-22.178	0.100
742.800	-17.492	0.100
742.900	-19.168	0.100
743.000	-19.894	0.100
743.100	-11.910	0.100
743.200	-16.678	0.100
743.300	-7.252	0.100
743.400	-6.107	0.100
743.500	-8.867	0.100
743.600	-12.087	0.100
743.700	-15.267	0.100
743.800	-19.134	0.100
743.900	-17.225	0.100
744.000	-11.447	0.100
744.100	-21.398	0.100
744.200	-12.099	0.100
744.300	-19.566	0.100
744.400	-19.169	0.100
744.500	-22.775	0.100
744.600	-9.814	0.100
744.700	-5.719	0.100
744.800	-12.190	0.100
744.900	-16.748	0.100
745.000	-19.438	0.100
745.100	-6.022	0.100
745.200	-14.329	0.100
745.300	-12.849	0.100
745.400	-22.977	0.100
745.500	-10.485	0.100
745.600	-20.491	0.100
745.700	-11.097	0.100
745.800	-26.034	0.100
745.900	-13.556	0.100
746.000	-5.679	0.100
746.100	-13.314	0.100
746.200	-20.728	0.100
746.300	-16.420	0.100
746.400	-14.226	0.100
746.500	-23.525	0.100
746.600	-10.960	0.100
746.700	-16.479	0.100
746.800	-22.284	0.100
746.900	-2.450	0.100
747.000	-13.540	0.100
747.100	-16.660	0.100
747.200	-13.078	0.100
747.300	-13.904	0.100
747.400	-15.655	0.100
747.500	-20.944	0.100
747.600	-1.485	0.100
747.700	-27.150	0.100
747.800	-2.318	0.100
747.900	-23.779	0.100
748.000	-20.851	0.100
748.100	-1.467	0.100
748.200	-14.090	0.100
748.300	-19.368	0.100
748.400	-18.122	0.100
748.500	-13.199	0.100
748.600	-7.842	0.100
748.700	-8.381	0.100
748.800	-22.673	0.100
748.900	-12.808	0.100
749.000	-24.745	0.100
749.100	-10.778	0.100
749.200	-15.824	0.100
749.300	-18.617	0.100
749.400	-17.597	0.100
749.500	-10.047	0.100
749.600	-14.626	0.100
749.700	-17.274	0.100
749.800	-20.111	0.100
749.900	-13.239	0.100
750.000	-17.476	0.100
750.100	-9.460	0.100
750.200	-15.460	0.100
750.300	-12.977	0.100
750.400	-17.751	0.100
750.500	-6.497	0.100
750.600	-21.435	0.100
750.700	-17.667	0.100
750.800	-14.324	0.100
750.900	-11.391	0.100
751.000	-21.723	0.100
751.100	-21.381	0.100
751.200	-23.306	0.100
751.300	-15.349	0.100
751.400	-28.629	0.100
751.500	6.357	0.100
751.600	-32.684	0.100
751.700	-20.298	0.100
751.800	-10.919	0.100
751.900	-18.224	0.100
752.000	-7.914	0.100
752.100	-17.111	0.100
752.200	-16.288	0.100
752.300	-3.700	0.100
752.400	-7.615	0.100
752.500	-20.160	0.100
752.600	-20.215	0.100
752.700	-17.015	0.100
752.800	-6.503	0.100
752.900	-11.384	0.100
753.000	-22.558	0.100
753.100	-18.778	0.100
753.200	-8.874	0.100
753.300	-19.092	0.100
753.400	-5.126	0.100
753.500	-14.193	0.100
753.600	-18.357	0.100
753.700	-3.439	0.100
753.800	-23.635	0.100
753.900	-28.832	0.100
754.000	-25.042	0.100
754.100	-5.261	0.100
754.200	-16.408	0.100
754.300	-5.622	0.100
754.400	-1.672	0.100
754.500	-20.465	0.100
754.600	-18.546	0.100
754.700	-23.922	0.100
754.800	-17.152	0.100
754.900	-5.108	0.100
755.000	-18.209	0.100
755.100	-9.250	0.100
755.200	-17.618	0.100
755.300	-22.099	0.100
755.400	1.629	0.100
755.500	-15.268	0.100
755.600	-14.153	0.100
755.700	-29.729	0.100
755.800	-24.480	0.100
755.900	-12.942	0.100
756.000	-13.659	0.100
756.100	-16.881	0.100
756.200	-22.222	0.100
756.300	-31.360	0.100
756.400	-12.897	0.100
756.500	-13.263	0.100
756.600	-8.971	0.100
756.700	-20.671	0.100
756.800	-5.774	0.100
756.900	-21.660	0.100
757.000	-20.401	0.100
757.100	0.406	0.100
757.200	-17.900	0.100
757.300	-37.079	0.100
757.400	-19.825	0.100
757.500	-24.492	0.100
757.600	-20.045	0.100
757.700	-13.031	0.100
757.800	-15.345	0.100
757.900	-14.087	0.100
758.000	-6.123	0.100
758.100	-22.662	0.100
758.200	-23.073	0.100
758.300	-12.245	0.100
758.400	-21.347	0.100
758.500	-18.177	0.100
758.600	-6.436	0.100
758.700	-14.363	0.100
758.800	-9.883	0.100
758.900	-17.513	0.100
759.000	-5.538	0.100
759.100	-5.577	0.100
759.200	-16.659	0.100
759.300	-17.341	0.100
759.400	-22.743	0.100
759.500	-17.646	0.100
759.600	-19.293	0.100
759.700	-15.730	0.100
759.800	-15.283	0.100
759.900	-6.515	0.100
760.000	-14.049	0.100
760.100	-27.983	0.100
760.200	-25.470	0.100
760.300	-5.040	0.100
760.400	-17.854	0.100
760.500	-18.799	0.100
760.600	-16.183	0.100
760.700	6.871	0.100
760.800	-10.443	0.100
760.900	-20.723	0.100
761.000	-12.776	0.100
761.100	-7.406	0.100
761.200	-6.034	0.100
761.300	-21.945	0.100
761.400	-13.910	0.100
761.500	-12.916	0.100
761.600	-11.067	0.100
761.700	-29.512	0.100
761.800	-19.733	0.100
761.900	-21.102	0.100
762.000	-11.535	0.100
762.100	-13.993	0.100
762.200	-24.183	0.100
762.300	-13.617	0.100
762.400	-8.524	0.100
762.500	-19.363	0.100
762.600	-18.950	0.100
762.700	-3.095	0.100
762.800	-17.563	0.100
762.900	-15.881	0.100
763.000	-10.737	0.100
763.100	-16.429	0.100
763.200	-17.819	0.100
763.300	-17.986	0.100
763.400	-5.794	0.100
763.500	-26.175	0.100
763.600	-3.253	0.100
763.700	-0.158	0.100
763.800	-29.089	0.100
763.900	-13.107	0.100
764.000	-14.253	0.100
764.100	-11.961	0.100
764.200	-21.390	0.100
764.300	-24.542	0.100
764.400	-17.577	0.100
764.500	-11.771	0.100
764.600	-23.532	0.100
764.700	-17.947	0.100
764.800	-4.757	0.100
764.900	-12.751	0.100
765.000	-19.789	0.100
765.100	-7.720	0.100
765.200	-12.112	0.100
765.300	-6.928	0.100
765.400	-12.824	0.100
765.500	-8.596	0.100
765.600	-11.561	0.100
765.700	-24.730	0.100
765.800	-4.279	0.100
765.900	-6.297	0.100
766.000	-27.616	0.100
766.100	-19.973	0.100
766.200	-3.635	0.100
766.300	-15.340	0.100
766.400	-11.175	0.100
766.500	-17.539	0.100
766.600	-13.597	0.100
766.700	-14.298	0.100
766.800	-8.741	0.100
766.900	-2.722	0.100
767.000	-20.344	0.100
767.100	-6.790	0.100
767.200	-25.683	0.100
767.300	-16.390	0.100
767.400	-26.872	0.100
767.500	-15.587	0.100
767.600	-24.748	0.100
767.700	-3.610	0.100
767.800	-12.241	0.100
767.900	-19.344	0.100
768.000	-15.223	0.100
768.100	-8.298	0.100
768.200	-21.215	0.100
768.300	-19.265	0.100
768.400	-11.813	0.100
768.500	-24.842	0.100
768.600	-22.751	0.100
768.700	-19.903	0.100
768.800	-11.123	0.100
768.900	-24.465	0.100
769.000	-23.973	0.100
769.100	0.498	0.100
769.200	-10.155	0.100
769.300	-23.948	0.100
769.400	-12.011	0.100
769.500	-13.347	0.100
769.600	-11.244	0.100
769.700	-19.388	0.100
769.800	-1.417	0.100
769.900	-18.879	0.100
770.000	-17.885	0.100
770.100	-8.530	0.100
770.200	-14.558	0.100
770.300	-11.629	0.100
770.400	-0.962	0.100
770.500	-16.805	0.100
770.600	-11.678	0.100
770.700	-12.508	0.100
770.800	-11.486	0.100
770.900	-21.458	0.100
771.000	-8.245	0.100
771.100	-5.394	0.100
771.200	-11.993	0.100
771.300	-14.973	0.100
771.400	-35.650	0.100
771.500	-2.497	0.100
771.600	-11.896	0.100
771.700	-21.035	0.100
771.800	-11.463	0.100
771.900	-18.283	0.100
772.000	-14.049	0.100
772.100	-24.751	0.100
772.200	-17.900	0.100
772.300	-12.306	0.100
772.400	-5.842	0.100
772.500	-9.850	0.100
772.600	-9.449	0.100
772.700	-5.748	0.100
772.800	-18.988	0.100
772.900	-25.449	0.100
773.000	-15.941	0.100
773.100	-5.967	0.100
773.200	-9.538	0.100
773.300	-2.820	0.100
773.400	-6.655	0.100
773.500	-19.178	0.100
773.600	-15.715	0.100
773.700	-20.518	0.100
773.800	4.229	0.100
773.900	-18.142	0.100
774.000	-15.438	0.100
774.100	-3.651	0.100
774.200	-29.409	0.100
774.300	-10.375	0.100
774.400	0.415	0.100
774.500	-13.153	0.100
774.600	-14.949	0.100
774.700	-29.293	0.100
774.800	-12.862	0.100
774.900	-11.909	0.100
775.000	-18.126	0.100
775.100	-16.690	0.100
775.200	-19.399	0.100
775.300	-12.260	0.100
775.400	-8.030	0.100
775.500	-14.924	0.100
775.600	-26.550	0.100
775.700	-21.228	0.100
775.800	-2.121	0.100
775.900	-23.408	0.100
776.000	-5.414	0.100
776.100	-10.004	0.100
776.200	-18.555	0.100
776.300	-9.875	0.100
776.400	-24.956	0.100
776.500	-22.359	0.100
776.600	-16.043	0.100
776.700	-9.406	0.100
776.800	-19.445	0.100
776.900	-2.289	0.100
777.000	-10.081	0.100
777.100	-9.392	0.100
777.200	-22.283	0.100
777.300	-12.911	0.100
777.400	-12.832	0.100
777.500	-3.325	0.100
777.600	-19.728	0.100
777.700	-19.772	0.100
777.800	-10.685	0.100
777.900	-1.282	0.100
778.000	-17.360	0.100
778.100	1.564	0.100
778.200	-18.339	0.100
778.300	-20.382	0.100
778.400	-21.066	0.100
778.500	-0.356	0.100
778.600	-14.255	0.100
778.700	-20.605	0.100
778.800	-19.097	0.100
778.900	-21.756	0.100
779.000	1.094	0.100
779.100	-10.613	0.100
779.200	-2.620	0.100
779.300	-18.127	0.100
779.400	-13.893	0.100
779.500	-20.996	0.100
779.600	-12.268	0.100
779.700	-3.176	0.100
779.800	-10.952	0.100
779.900	-20.022	0.100
780.000	-16.301	0.100
780.100	-5.985	0.100
780.200	-19.411	0.100
780.300	-3.540	0.100
780.400	-20.014	0.100
780.500	-16.784	0.100
780.600	-11.712	0.100
780.700	-17.718	0.100
780.800	-22.907	0.100
780.900	-23.132	0.100
781.000	-12.710	0.100
781.100	-7.366	0.100
781.200	5.388	0.100
781.300	4.351	0.100
781.400	-16.533	0.100
781.500	-14.539	0.100
781.600	6.483	0.100
781.700	6.967	0.100
781.800	8.672	0.100
781.900	-6.596	0.100
782.000	13.942	0.100
782.100	-2.153	0.100
782.200	5.559	0.100
782.300	11.601	0.100
782.400	11.889	0.100
782.500	14.124	0.100
782.600	4.096	0.100
782.700	-2.099	0.100
782.800	-3.866	0.100
782.900	16.473	0.100
783.000	11.575	0.100
783.100	-3.145	0.100
783.200	5.421	0.100
783.300	-4.753	0.100
783.400	0.869	0.100
783.500	11.833	0.100
783.600	-10.045	0.100
783.700	4.029	0.100
783.800	-2.959	0.100
783.900	7.978	0.100
784.000	8.270	0.100
784.100	12.276	0.100
784.200	11.691	0.100
784.300	-7.674	0.100
784.400	15.905	0.100
784.500	-2.045	0.100
784.600	-2.908	0.100
784.700	19.477	0.100
784.800	11.468	0.100
784.900	2.627	0.100
785.000	7.608	0.100
785.100	3.949	0.100
785.200	9.293	0.100
785.300	11.109	0.100
785.400	10.436	0.100
785.500	-0.420	0.100
785.600	13.219	0.100
785.700	-0.226	0.100
785.800	-5.430	0.100
785.900	4.296	0.100
786.000	-1.749	0.100
786.100	16.129	0.100
786.200	9.537	0.100
786.300	-3.214	0.100
786.400	12.307	0.100
786.500	6.753	0.100
786.600	-11.681	0.100
786.700	0.840	0.100
786.800	13.908	0.100
786.900	20.097	0.100
787.000	0.109	0.100
787.100	-2.108	0.100
787.200	-5.800	0.100
787.300	8.143	0.100
787.400	1.321	0.100
787.500	5.631	0.100
787.600	1.344	0.100
787.700	8.496	0.100
787.800	5.299	0.100
787.900	9.294	0.100
788.000	13.010	0.100
788.100	8.573	0.100
788.200	2.044	0.100
788.300	2.423	0.100
788.400	-0.138	0.100
788.500	6.736	0.100
788.600	10.298	0.100
788.700	18.932	0.100
788.800	13.030	0.100
788.900	1.293	0.100
789.000	0.299	0.100
789.100	22.799	0.100
789.200	10.147	0.100
789.300	6.653	0.100
789.400	3.208	0.100
789.500	-2.932	0.100
789.600	22.664	0.100
789.700	14.717	0.100
789.800	12.139	0.100
789.900	6.822	0.100
790.000	21.363	0.100
790.100	-7.769	0.100
790.200	14.804	0.100
790.300	29.412	0.100
790.400	19.058	0.100
790.500	7.573	0.100
790.600	11.248	0.100
790.700	4.617	0.100
790.800	7.222	0.100
790.900	0.239	0.100
791.000	10.869	0.100
791.100	14.521	0.100
791.200	10.806	0.100
791.300	1.385	0.100
791.400	17.783	0.100
791.500	4.964	0.100
791.600	9.903	0.100
791.700	12.215	0.100
791.800	18.888	0.100
791.900	11.608	0.100
792.000	17.093	0.100
792.100	11.488	0.100
792.200	18.890	0.100
792.300	3.945	0.100
792.400	23.358	0.100
792.500	3.183	0.100
792.600	15.764	0.100
792.700	16.725	0.100
792.800	11.347	0.100
792.900	12.623	0.100
793.000	16.471	0.100
793.100	19.555	0.100
793.200	16.847	0.100
793.300	3.306	0.100
793.400	25.377	0.100
793.500	30.110	0.100
793.600	23.614	0.100
793.700	29.197	0.100
793.800	13.904	0.100
793.900	24.108	0.100
794.000	25.849	0.100
794.100	5.351	0.100
794.200	8.066	0.100
794.300	6.901	0.100
794.400	13.589	0.100
794.500	24.169	0.100
794.600	3.973	0.100
794.700	31.888	0.100
794.800	21.145	0.100
794.900	10.648	0.100
795.000	26.156	0.100
795.100	15.876	0.100
795.200	4.548	0.100
795.300	17.546	0.100
795.400	15.969	0.100
795.500	28.210	0.100
795.600	19.796	0.100
795.700	15.801	0.100
795.800	17.938	0.100
795.900	25.390	0.100
796.000	33.672	0.100
796.100	13.703	0.100
796.200	16.863	0.100
796.300	21.719	0.100
796.400	19.998	0.100
796.500	23.625	0.100
796.600	21.117	0.100
796.700	16.374	0.100
796.800	23.786	0.100
796.900	26.575	0.100
797.000	16.325	0.100
797.100	30.898	0.100
797.200	26.839	0.100
797.300	26.245	0.100
797.400	10.087	0.100
797.500	28.419	0.100
797.600	15.659	0.100
797.700	16.035	0.100
797.800	16.042	0.100
797.900	17.715	0.100
798.000	27.569	0.100
798.100	31.040	0.100
798.200	26.869	0.100
798.300	1.967	0.100
798.400	22.396	0.100
798.500	30.127	0.100
798.600	25.344	0.100
798.700	28.456	0.100
798.800	15.752	0.100
798.900	16.228	0.100
799.000	38.542	0.100
799.100	27.331	0.100
799.200	2.326	0.100
799.300	21.238	0.100
799.400	32.246	0.100
799.500	15.523	0.100
799.600	32.269	0.100
799.700	22.841	0.100
799.800	28.553	0.100
799.900	12.842	0.100
800.000	32.063	0.100
