time /s	I /nA	E /V
0.100	-17.320	0.100
0.200	-9.815	0.100
0.300	0.802	0.100
0.400	0.086	0.099
0.500	-23.170	0.100
0.600	-23.697	0.100
0.700	8.250	0.100
0.800	0.114	0.100
0.900	-23.766	0.099
1.000	-10.903	0.100
1.100	-15.223	0.100
1.200	-14.805	0.100
1.300	-12.819	0.100
1.400	-6.103	0.100
1.500	-16.568	0.100
1.600	-5.427	0.099
1.700	-8.684	0.100
1.800	-9.718	0.100
1.900	-26.144	0.099
2.000	-13.157	0.100
2.100	-9.560	0.100
2.200	-14.136	0.100
2.300	-16.310	0.099
2.400	-20.415	0.100
2.500	-17.286	0.100
2.600	-11.598	0.100
2.700	-4.211	0.100
2.800	-8.413	0.100
2.900	-7.489	0.100
3.000	-23.167	0.100
3.100	3.003	0.100
3.200	-10.044	0.099
3.300	-17.010	0.100
3.400	3.812	0.099
3.500	-9.925	0.099
3.600	-12.494	0.100
3.700	-4.298	0.100
3.800	-9.866	0.100
3.900	-5.937	0.100
4.000	-7.527	0.100
4.100	-2.213	0.099
4.200	-14.531	0.100
4.300	-2.907	0.100
4.400	-11.146	0.099
4.500	2.273	0.100
4.600	7.306	0.100
4.700	-35.349	0.100
4.800	-4.768	0.100
4.900	-1.344	0.100
5.000	-1.593	0.100
5.100	1.796	0.100
5.200	-4.282	0.100
5.300	-12.951	0.099
5.400	-17.346	0.100
5.500	-23.165	0.100
5.600	-21.920	0.100
5.700	1.050	0.100
5.800	-8.869	0.099
5.900	-26.395	0.100
6.000	-4.857	0.100
6.100	-5.628	0.100
6.200	-4.047	0.100
6.300	-1.957	0.100
6.400	-18.540	0.100
6.500	-27.243	0.100
6.600	-13.057	0.100
6.700	19.986	0.100
6.800	-0.781	0.100
6.900	-1.653	0.100
7.000	-5.840	0.100
7.100	-15.774	0.099
7.200	-17.448	0.100
7.300	-10.645	0.100
7.400	-8.760	0.100
7.500	-9.326	0.100
7.600	-0.001	0.100
7.700	-12.847	0.100
7.800	-14.460	0.100
7.900	-12.413	0.100
8.000	-1.159	0.100
8.100	4.244	0.100
8.200	-20.737	0.100
8.300	-16.209	0.100
8.400	6.889	0.100
8.500	-29.386	0.100
8.600	-13.808	0.100
8.700	15.358	0.100
8.800	-6.691	0.100
8.900	-32.493	0.099
9.000	8.213	0.100
9.100	-14.823	0.100
9.200	-15.831	0.099
9.300	-22.530	0.099
9.400	-15.767	0.099
9.500	3.917	0.100
9.600	-4.879	0.100
9.700	-30.412	0.100
9.800	-9.974	0.100
9.900	-17.866	0.100
10.000	-13.476	0.099
10.100	-29.596	0.099
10.200	2.629	0.100
10.300	-12.946	0.100
10.400	-28.821	0.100
10.500	-9.054	0.100
10.600	-14.834	0.099
10.700	4.553	0.100
10.800	-17.195	0.100
10.900	-3.912	0.100
11.000	-15.194	0.100
11.100	-5.568	0.100
11.200	-1.429	0.100
11.300	-7.718	0.099
11.400	-25.203	0.100
11.500	-2.392	0.100
11.600	-17.143	0.100
11.700	-12.343	0.100
11.800	0.474	0.100
11.900	-1.221	0.100
12.000	-8.323	0.099
12.100	-7.559	0.100
12.200	-18.173	0.100
12.300	3.019	0.100
12.400	3.842	0.100
12.500	-6.732	0.100
12.600	-5.508	0.100
12.700	-10.968	0.099
12.800	-17.529	0.100
12.900	-19.596	0.100
13.000	-11.644	0.099
13.100	-3.597	0.100
13.200	-17.886	0.099
13.300	-6.264	0.100
13.400	-0.186	0.100
13.500	-0.261	0.100
13.600	-10.460	0.099
13.700	-18.225	0.100
13.800	-14.273	0.100
13.900	-2.299	0.100
14.000	-21.956	0.100
14.100	-12.082	0.100
14.200	-5.210	0.100
14.300	-14.900	0.100
14.400	-17.187	0.100
14.500	-8.250	0.100
14.600	-4.741	0.100
14.700	-8.152	0.099
14.800	-1.867	0.100
14.900	-15.105	0.100
15.000	-11.931	0.100
15.100	-4.350	0.100
15.200	-20.940	0.100
15.300	-2.162	0.100
15.400	-21.490	0.099
15.500	-4.053	0.100
15.600	-16.585	0.100
15.700	-10.413	0.100
15.800	-15.509	0.099
15.900	9.365	0.100
16.000	-22.089	0.100
16.100	-9.801	0.100
16.200	-12.501	0.100
16.300	-11.716	0.099
16.400	-14.613	0.100
16.500	-24.786	0.099
16.600	-4.480	0.100
16.700	10.237	0.099
16.800	-7.089	0.100
16.900	-6.054	0.100
17.000	-12.210	0.100
17.100	-1.581	0.099
17.200	-2.539	0.100
17.300	-8.040	0.100
17.400	-18.873	0.100
17.500	0.737	0.100
17.600	-21.801	0.099
17.700	-7.686	0.100
17.800	-4.309	0.100
17.900	-1.590	0.100
18.000	6.222	0.100
18.100	1.051	0.100
18.200	-10.993	0.100
18.300	-15.189	0.100
18.400	-17.409	0.100
18.500	-1.059	0.100
18.600	-14.637	0.100
18.700	6.615	0.100
18.800	-31.302	0.100
18.900	-4.495	0.100
19.000	-1.124	0.100
19.100	-27.374	0.100
19.200	-11.993	0.100
19.300	-35.148	0.100
19.400	-20.234	0.100
19.500	19.322	0.100
19.600	-3.449	0.100
19.700	-9.913	0.100
19.800	-13.841	0.100
19.900	-27.868	0.100
20.000	5.273	0.100
20.100	-9.696	0.100
20.200	-22.248	0.100
20.300	-4.302	0.100
20.400	5.841	0.100
20.500	-20.817	0.100
20.600	-11.162	0.100
20.700	3.985	0.100
20.800	-9.218	0.100
20.900	-6.939	0.100
21.000	-12.709	0.100
21.100	-12.789	0.100
21.200	-7.640	0.100
21.300	-19.235	0.100
21.400	-30.432	0.100
21.500	4.082	0.100
21.600	-3.000	0.100
21.700	-9.317	0.100
21.800	-28.930	0.100
21.900	-8.564	0.100
22.000	-8.226	0.100
22.100	-19.122	0.100
22.200	-13.825	0.100
22.300	-6.371	0.100
22.400	-14.845	0.100
22.500	-7.017	0.100
22.600	-12.525	0.100
22.700	-16.399	0.100
22.800	-19.472	0.099
22.900	-1.314	0.100
23.000	-18.240	0.100
23.100	-9.022	0.100
23.200	-10.827	0.100
23.300	0.130	0.100
23.400	-17.038	0.100
23.500	-7.967	0.100
23.600	-6.091	0.100
23.700	-4.699	0.100
23.800	-24.409	0.100
23.900	-8.385	0.100
24.000	-15.511	0.100
24.100	-9.649	0.100
24.200	-20.670	0.100
24.300	-5.893	0.100
24.400	-2.976	0.100
24.500	-6.660	0.100
24.600	-1.994	0.100
24.700	-18.565	0.100
24.800	-14.621	0.100
24.900	-18.399	0.100
25.000	5.184	0.100
25.100	-7.258	0.100
25.200	-3.417	0.100
25.300	0.550	0.100
25.400	-16.077	0.100
25.500	-10.370	0.100
25.600	-4.783	0.100
25.700	-8.056	0.100
25.800	-9.493	0.100
25.900	-12.489	0.100
26.000	-11.406	0.100
26.100	-39.827	0.100
26.200	-6.442	0.100
26.300	4.697	0.100
26.400	4.435	0.100
26.500	-5.140	0.100
26.600	4.492	0.100
26.700	-14.123	0.100
26.800	-11.945	0.100
26.900	-3.450	0.100
27.000	-17.511	0.100
27.100	-7.853	0.100
27.200	-1.804	0.100
27.300	-9.938	0.100
27.400	-23.374	0.100
27.500	-7.305	0.100
27.600	-11.369	0.100
27.700	-12.192	0.100
27.800	-9.929	0.100
27.900	-16.993	0.100
28.000	-11.803	0.100
28.100	-20.606	0.100
28.200	1.881	0.100
28.300	-2.726	0.100
28.400	-6.016	0.100
28.500	-4.333	0.100
28.600	-17.690	0.100
28.700	-26.121	0.100
28.800	-12.762	0.100
28.900	-19.200	0.100
29.000	1.527	0.100
29.100	-10.636	0.100
29.200	-16.264	0.100
29.300	-4.896	0.100
29.400	-17.787	0.100
29.500	-2.064	0.100
29.600	20.053	0.100
29.700	17.274	0.100
29.800	2.962	0.100
29.900	-4.470	0.100
30.000	12.680	0.100
30.100	3.946	0.100
30.200	20.920	0.100
30.300	-10.894	0.100
30.400	21.828	0.100
30.500	20.321	0.100
30.600	27.206	0.100
30.700	25.833	0.100
30.800	17.358	0.100
30.900	13.945	0.100
31.000	41.886	0.100
31.100	27.123	0.100
31.200	12.251	0.100
31.300	21.917	0.100
31.400	8.412	0.100
31.500	23.009	0.100
31.600	21.470	0.100
31.700	39.540	0.100
31.800	33.321	0.100
31.900	33.426	0.100
32.000	27.092	0.100
32.100	25.131	0.100
32.200	29.224	0.100
32.300	13.770	0.100
32.400	12.763	0.100
32.500	34.987	0.100
32.600	9.517	0.100
32.700	26.985	0.100
32.800	32.088	0.100
32.900	4.627	0.100
33.000	-13.342	0.100
33.100	23.151	0.100
33.200	39.438	0.100
33.300	9.170	0.100
33.400	16.613	0.100
33.500	26.041	0.100
33.600	14.209	0.100
33.700	8.370	0.100
33.800	9.515	0.100
33.900	11.499	0.100
34.000	13.619	0.100
34.100	17.540	0.100
34.200	13.308	0.100
34.300	18.011	0.100
34.400	16.351	0.100
34.500	21.024	0.100
34.600	12.884	0.100
34.700	7.539	0.100
34.800	12.904	0.100
34.900	26.844	0.100
35.000	5.870	0.100
35.100	9.266	0.100
35.200	12.337	0.100
35.300	13.024	0.100
35.400	4.399	0.100
35.500	38.936	0.100
35.600	10.540	0.100
35.700	17.641	0.100
35.800	25.233	0.100
35.900	30.279	0.100
36.000	7.014	0.100
36.100	6.345	0.100
36.200	8.198	0.100
36.300	18.129	0.100
36.400	12.859	0.100
36.500	20.536	0.100
36.600	13.240	0.100
36.700	23.216	0.100
36.800	20.678	0.100
36.900	17.740	0.100
37.000	12.697	0.100
37.100	21.464	0.100
37.200	13.315	0.100
37.300	19.366	0.100
37.400	24.226	0.100
37.500	15.481	0.100
37.600	39.204	0.100
37.700	33.889	0.100
37.800	10.088	0.100
37.900	29.033	0.100
38.000	26.551	0.100
38.100	25.792	0.100
38.200	36.527	0.100
38.300	14.784	0.100
38.400	30.835	0.100
38.500	22.197	0.100
38.600	22.721	0.100
38.700	30.007	0.100
38.800	16.713	0.100
38.900	38.151	0.100
39.000	26.555	0.100
39.100	48.081	0.100
39.200	21.984	0.100
39.300	20.909	0.100
39.400	31.846	0.100
39.500	31.213	0.100
39.600	24.632	0.100
39.700	35.987	0.100
39.800	44.663	0.100
39.900	30.270	0.100
40.000	13.781	0.100
40.100	41.217	0.100
40.200	27.917	0.100
40.300	28.857	0.100
40.400	37.903	0.100
40.500	23.702	0.100
40.600	35.991	0.100
40.700	29.350	0.100
40.800	35.718	0.100
40.900	34.059	0.100
41.000	47.593	0.100
41.100	31.886	0.100
41.200	28.865	0.100
41.300	34.675	0.100
41.400	28.637	0.100
41.500	29.779	0.100
41.600	27.322	0.100
41.700	29.947	0.100
41.800	35.523	0.100
41.900	35.702	0.100
42.000	45.330	0.100
42.100	48.251	0.100
42.200	29.520	0.100
42.300	41.971	0.100
42.400	39.268	0.100
42.500	56.074	0.100
42.600	30.066	0.100
42.700	34.496	0.100
42.800	36.135	0.100
42.900	35.123	0.100
43.000	36.631	0.100
43.100	53.469	0.100
43.200	46.180	0.100
43.300	55.374	0.100
43.400	33.940	0.100
43.500	39.751	0.100
43.600	46.058	0.100
43.700	49.209	0.100
43.800	46.100	0.100
43.900	34.496	0.100
44.000	53.478	0.100
44.100	38.638	0.100
44.200	28.187	0.100
44.300	53.539	0.100
44.400	40.112	0.100
44.500	36.211	0.100
44.600	42.630	0.100
44.700	34.589	0.100
44.800	57.052	0.100
44.900	38.615	0.100
45.000	37.428	0.100
45.100	36.814	0.100
45.200	52.876	0.100
45.300	29.300	0.100
45.400	42.704	0.100
45.500	41.104	0.100
45.600	44.058	0.100
45.700	39.562	0.100
45.800	56.738	0.100
45.900	39.956	0.100
46.000	39.505	0.100
46.100	55.148	0.100
46.200	39.855	0.100
46.300	29.150	0.100
46.400	36.057	0.100
46.500	48.031	0.100
46.600	38.434	0.100
46.700	31.778	0.100
46.800	46.868	0.100
46.900	43.894	0.100
47.000	44.734	0.100
47.100	27.728	0.100
47.200	52.833	0.100
47.300	34.459	0.100
47.400	25.149	0.100
47.500	48.077	0.100
47.600	50.137	0.100
47.700	43.320	0.100
47.800	41.114	0.100
47.900	40.184	0.100
48.000	49.176	0.100
48.100	40.324	0.100
48.200	51.559	0.100
48.300	45.575	0.100
48.400	24.364	0.100
48.500	43.299	0.100
48.600	39.201	0.100
48.700	49.809	0.100
48.800	37.277	0.100
48.900	38.857	0.100
49.000	55.906	0.100
49.100	39.479	0.100
49.200	38.739	0.100
49.300	23.791	0.100
49.400	38.903	0.100
49.500	61.966	0.100
49.600	38.688	0.100
49.700	34.863	0.100
49.800	47.550	0.100
49.900	38.597	0.100
50.000	40.150	0.100
50.100	40.313	0.100
50.200	42.690	0.100
50.300	31.035	0.100
50.400	32.370	0.100
50.500	23.992	0.100
50.600	29.681	0.100
50.700	58.887	0.100
50.800	63.070	0.100
50.900	31.704	0.100
51.000	42.836	0.100
51.100	38.929	0.100
51.200	43.650	0.100
51.300	73.971	0.100
51.400	30.260	0.100
51.500	36.659	0.100
51.600	41.007	0.100
51.700	41.665	0.100
51.800	46.765	0.100
51.900	43.607	0.100
52.000	15.552	0.100
52.100	36.204	0.100
52.200	45.832	0.100
52.300	43.951	0.100
52.400	40.810	0.100
52.500	40.144	0.100
52.600	45.770	0.100
52.700	31.595	0.100
52.800	46.053	0.100
52.900	38.183	0.100
53.000	31.414	0.100
53.100	48.944	0.100
53.200	37.803	0.100
53.300	25.879	0.100
53.400	47.601	0.100
53.500	36.889	0.100
53.600	31.147	0.100
53.700	44.110	0.100
53.800	51.328	0.100
53.900	53.082	0.100
54.000	18.680	0.100
54.100	44.090	0.100
54.200	36.387	0.100
54.300	39.021	0.100
54.400	31.453	0.100
54.500	41.202	0.100
54.600	32.182	0.100
54.700	47.811	0.100
54.800	30.217	0.100
54.900	44.547	0.100
55.000	18.826	0.100
55.100	66.804	0.100
55.200	13.240	0.100
55.300	36.117	0.100
55.400	29.587	0.100
55.500	47.143	0.100
55.600	48.715	0.100
55.700	46.324	0.100
55.800	37.933	0.100
55.900	44.534	0.100
56.000	35.907	0.100
56.100	36.664	0.100
56.200	40.699	0.100
56.300	44.572	0.100
56.400	34.488	0.100
56.500	29.674	0.100
56.600	29.687	0.100
56.700	43.796	0.100
56.800	22.411	0.100
56.900	38.806	0.100
57.000	32.210	0.100
57.100	54.503	0.100
57.200	38.481	0.100
57.300	54.687	0.100
57.400	27.858	0.100
57.500	50.791	0.100
57.600	61.477	0.100
57.700	35.811	0.100
57.800	30.966	0.100
57.900	25.797	0.100
58.000	43.534	0.100
58.100	33.422	0.100
58.200	51.195	0.100
58.300	44.368	0.100
58.400	32.344	0.100
58.500	34.002	0.100
58.600	42.079	0.100
58.700	41.519	0.100
58.800	52.935	0.100
58.900	42.078	0.100
59.000	35.790	0.100
59.100	48.326	0.100
59.200	47.873	0.100
59.300	24.385	0.100
59.400	39.982	0.100
59.500	20.601	0.100
59.600	51.573	0.100
59.700	45.486	0.100
59.800	37.368	0.100
59.900	33.912	0.100
60.000	45.582	0.100
60.100	61.627	0.100
60.200	46.370	0.100
60.300	38.768	0.100
60.400	36.699	0.100
60.500	48.287	0.100
60.600	30.760	0.100
60.700	41.740	0.100
60.800	38.770	0.100
60.900	41.997	0.100
61.000	31.334	0.100
61.100	37.919	0.100
61.200	34.485	0.100
61.300	45.764	0.100
61.400	39.005	0.100
61.500	43.884	0.100
61.600	30.775	0.100
61.700	54.452	0.100
61.800	27.948	0.100
61.900	49.081	0.100
62.000	41.561	0.100
62.100	38.900	0.100
62.200	40.992	0.100
62.300	38.360	0.100
62.400	43.999	0.100
62.500	37.830	0.100
62.600	46.507	0.100
62.700	35.733	0.100
62.800	37.234	0.100
62.900	40.091	0.100
63.000	40.223	0.100
63.100	35.190	0.100
63.200	40.442	0.100
63.300	51.882	0.100
63.400	40.000	0.100
63.500	34.997	0.100
63.600	37.423	0.100
63.700	32.605	0.100
63.800	41.919	0.100
63.900	22.996	0.100
64.000	48.208	0.100
64.100	39.516	0.100
64.200	28.831	0.100
64.300	39.293	0.100
64.400	64.202	0.100
64.500	42.207	0.100
64.600	25.706	0.100
64.700	51.764	0.100
64.800	44.807	0.100
64.900	37.566	0.100
65.000	32.819	0.100
65.100	48.637	0.100
65.200	43.450	0.100
65.300	36.675	0.100
65.400	28.323	0.100
65.500	45.400	0.100
65.600	37.189	0.100
65.700	55.562	0.100
65.800	45.720	0.100
65.900	41.649	0.100
66.000	54.786	0.100
66.100	30.297	0.100
66.200	41.629	0.100
66.300	40.398	0.100
66.400	57.244	0.100
66.500	29.486	0.100
66.600	34.235	0.100
66.700	33.813	0.100
66.800	44.540	0.100
66.900	46.224	0.100
67.000	26.984	0.100
67.100	42.566	0.100
67.200	39.920	0.100
67.300	41.530	0.100
67.400	43.768	0.100
67.500	37.427	0.100
67.600	45.718	0.100
67.700	37.375	0.100
67.800	32.653	0.100
67.900	48.213	0.100
68.000	34.703	0.100
68.100	31.710	0.100
68.200	54.593	0.100
68.300	38.568	0.100
68.400	46.639	0.100
68.500	44.971	0.100
68.600	41.419	0.100
68.700	33.560	0.100
68.800	36.313	0.100
68.900	50.086	0.100
69.000	44.120	0.100
69.100	32.763	0.100
69.200	40.647	0.100
69.300	38.382	0.100
69.400	50.239	0.100
69.500	47.163	0.100
69.600	47.327	0.100
69.700	47.360	0.100
69.800	26.572	0.100
69.900	40.983	0.100
70.000	48.098	0.100
70.100	28.177	0.100
70.200	51.062	0.100
70.300	31.464	0.100
70.400	40.726	0.100
70.500	45.801	0.100
70.600	43.613	0.100
70.700	44.648	0.100
70.800	45.055	0.100
70.900	44.819	0.100
71.000	42.032	0.100
71.100	38.976	0.100
71.200	59.114	0.100
71.300	45.715	0.100
71.400	26.348	0.100
71.500	30.542	0.100
71.600	49.720	0.100
71.700	44.274	0.100
71.800	47.513	0.100
71.900	47.015	0.100
72.000	30.393	0.100
72.100	27.102	0.100
72.200	63.296	0.100
72.300	44.713	0.100
72.400	53.009	0.100
72.500	36.575	0.100
72.600	46.373	0.100
72.700	37.849	0.100
72.800	27.752	0.100
72.900	53.923	0.100
73.000	39.655	0.100
73.100	55.460	0.100
73.200	48.736	0.100
73.300	48.371	0.100
73.400	35.742	0.100
73.500	48.970	0.100
73.600	29.488	0.100
73.700	36.962	0.100
73.800	53.482	0.100
73.900	28.006	0.100
74.000	45.138	0.100
74.100	50.778	0.100
74.200	41.750	0.100
74.300	43.482	0.100
74.400	20.789	0.100
74.500	52.773	0.100
74.600	52.592	0.100
74.700	43.177	0.100
74.800	21.874	0.100
74.900	52.443	0.100
75.000	36.329	0.100
75.100	43.623	0.100
75.200	44.435	0.100
75.300	42.575	0.100
75.400	41.893	0.100
75.500	44.481	0.100
75.600	52.304	0.100
75.700	51.276	0.100
75.800	35.480	0.100
75.900	47.806	0.100
76.000	45.971	0.100
76.100	58.828	0.100
76.200	48.388	0.100
76.300	51.747	0.100
76.400	37.148	0.100
76.500	48.380	0.100
76.600	46.729	0.100
76.700	41.350	0.100
76.800	51.877	0.100
76.900	29.371	0.100
77.000	36.195	0.100
77.100	48.438	0.100
77.200	52.634	0.100
77.300	52.321	0.100
77.400	45.203	0.100
77.500	51.457	0.100
77.600	31.052	0.100
77.700	31.253	0.100
77.800	55.232	0.100
77.900	33.905	0.100
78.000	43.868	0.100
78.100	46.296	0.100
78.200	41.885	0.100
78.300	47.338	0.100
78.400	52.608	0.100
78.500	41.054	0.100
78.600	49.345	0.100
78.700	49.905	0.100
78.800	31.248	0.100
78.900	25.538	0.100
79.000	44.474	0.100
79.100	43.178	0.100
79.200	48.834	0.100
79.300	38.944	0.100
79.400	56.918	0.100
79.500	47.236	0.100
79.600	32.898	0.100
79.700	28.281	0.100
79.800	43.445	0.100
79.900	50.242	0.100
80.000	51.038	0.100
80.100	43.731	0.100
80.200	65.164	0.100
80.300	50.422	0.100
80.400	42.519	0.100
80.500	53.697	0.100
80.600	44.580	0.100
80.700	45.018	0.100
80.800	39.732	0.100
80.900	51.468	0.100
81.000	50.285	0.100
81.100	36.618	0.100
81.200	42.058	0.100
81.300	55.266	0.100
81.400	39.268	0.100
81.500	39.604	0.100
81.600	45.006	0.100
81.700	56.881	0.100
81.800	62.143	0.100
81.900	36.100	0.100
82.000	27.317	0.100
82.100	62.659	0.100
82.200	46.758	0.100
82.300	44.805	0.100
82.400	46.885	0.100
82.500	52.801	0.100
82.600	45.705	0.100
82.700	35.660	0.100
82.800	39.413	0.100
82.900	43.556	0.100
83.000	61.283	0.100
83.100	48.589	0.100
83.200	31.200	0.100
83.300	45.946	0.100
83.400	43.713	0.100
83.500	53.960	0.100
83.600	40.596	0.100
83.700	49.625	0.100
83.800	51.849	0.100
83.900	46.309	0.100
84.000	29.026	0.100
84.100	48.676	0.100
84.200	44.016	0.100
84.300	50.886	0.100
84.400	51.956	0.100
84.500	43.829	0.100
84.600	59.640	0.100
84.700	55.584	0.100
84.800	38.676	0.100
84.900	32.174	0.100
85.000	43.366	0.100
85.100	51.998	0.100
85.200	62.106	0.100
85.300	50.911	0.100
85.400	46.235	0.100
85.500	55.327	0.100
85.600	43.622	0.100
85.700	42.954	0.100
85.800	39.553	0.100
85.900	46.609	0.100
86.000	55.252	0.100
86.100	47.830	0.100
86.200	47.473	0.100
86.300	39.883	0.100
86.400	57.315	0.100
86.500	43.674	0.100
86.600	51.285	0.100
86.700	43.611	0.100
86.800	52.285	0.100
86.900	44.382	0.100
87.000	61.176	0.100
87.100	43.072	0.100
87.200	55.750	0.100
87.300	52.794	0.100
87.400	56.887	0.100
87.500	45.814	0.100
87.600	36.852	0.100
87.700	45.971	0.100
87.800	51.597	0.100
87.900	59.208	0.100
88.000	53.895	0.100
88.100	59.058	0.100
88.200	38.202	0.100
88.300	56.974	0.100
88.400	44.127	0.100
88.500	42.056	0.100
88.600	33.048	0.100
88.700	57.880	0.100
88.800	49.221	0.100
88.900	51.811	0.100
89.000	49.553	0.100
89.100	29.625	0.100
89.200	47.985	0.100
89.300	69.385	0.100
89.400	58.296	0.100
89.500	63.593	0.100
89.600	35.459	0.100
89.700	56.601	0.100
89.800	30.193	0.100
89.900	44.627	0.100
90.000	2.616	0.100
90.100	33.285	0.100
90.200	33.603	0.100
90.300	32.865	0.100
90.400	20.954	0.100
90.500	22.227	0.100
90.600	35.459	0.100
90.700	23.283	0.100
90.800	21.293	0.100
90.900	5.335	0.100
91.000	26.643	0.100
91.100	10.755	0.100
91.200	17.888	0.100
91.300	12.900	0.100
91.400	-7.895	0.100
91.500	33.186	0.100
91.600	10.935	0.100
91.700	-5.413	0.100
91.800	2.969	0.100
91.900	-0.815	0.100
92.000	-2.112	0.100
92.100	3.986	0.100
92.200	3.327	0.100
92.300	3.542	0.100
92.400	-21.536	0.100
92.500	-30.068	0.100
92.600	-4.960	0.100
92.700	-6.332	0.100
92.800	9.302	0.100
92.900	2.228	0.100
93.000	-18.865	0.100
93.100	-5.342	0.100
93.200	-3.333	0.100
93.300	17.659	0.100
93.400	-8.409	0.100
93.500	-27.258	0.100
93.600	4.295	0.100
93.700	1.620	0.100
93.800	4.482	0.100
93.900	-2.074	0.100
94.000	-4.816	0.100
94.100	1.372	0.100
94.200	-7.011	0.100
94.300	-11.321	0.100
94.400	-6.856	0.100
94.500	-2.407	0.100
94.600	-2.664	0.100
94.700	11.160	0.100
94.800	4.202	0.100
94.900	-7.237	0.100
95.000	-6.486	0.100
95.100	-4.020	0.100
95.200	5.228	0.100
95.300	1.313	0.100
95.400	-3.948	0.100
95.500	-8.684	0.100
95.600	-2.257	0.100
95.700	4.719	0.100
95.800	-1.226	0.100
95.900	-14.298	0.100
96.000	-1.879	0.100
96.100	-21.038	0.100
96.200	-4.002	0.100
96.300	1.859	0.100
96.400	5.533	0.100
96.500	-2.623	0.100
96.600	2.204	0.100
96.700	-19.179	0.100
96.800	10.382	0.100
96.900	7.893	0.100
97.000	-7.290	0.100
97.100	2.192	0.100
97.200	-8.232	0.100
97.300	-15.193	0.100
97.400	9.204	0.100
97.500	-17.940	0.100
97.600	3.370	0.100
97.700	-8.684	0.100
97.800	-13.612	0.100
97.900	1.813	0.100
98.000	-0.240	0.100
98.100	10.410	0.100
98.200	-6.781	0.100
98.300	-16.021	0.100
98.400	4.957	0.100
98.500	-7.692	0.100
98.600	7.838	0.100
98.700	-5.977	0.100
98.800	-18.274	0.100
98.900	-8.167	0.100
99.000	-5.353	0.100
99.100	-8.946	0.100
99.200	2.820	0.100
99.300	4.157	0.100
99.400	-21.483	0.100
99.500	-8.612	0.100
99.600	1.919	0.100
99.700	9.622	0.100
99.800	3.941	0.100
99.900	-3.433	0.100
100.000	-1.836	0.100
100.100	-23.143	0.100
100.200	-7.306	0.100
100.300	-4.190	0.100
100.400	3.169	0.100
100.500	-6.224	0.100
100.600	1.192	0.100
100.700	-16.350	0.100
100.800	-11.008	0.100
100.900	-23.773	0.100
101.000	-6.311	0.100
101.100	3.860	0.100
101.200	-16.151	0.100
101.300	-22.708	0.100
101.400	-12.343	0.100
101.500	-23.428	0.100
101.600	-8.231	0.100
101.700	-0.770	0.100
101.800	-7.001	0.100
101.900	-15.690	0.100
102.000	-8.049	0.100
102.100	-12.946	0.100
102.200	-22.716	0.100
102.300	0.121	0.100
102.400	0.442	0.100
102.500	-13.616	0.100
102.600	3.107	0.100
102.700	1.637	0.100
102.800	-7.587	0.100
102.900	-19.643	0.100
103.000	9.922	0.100
103.100	-3.260	0.100
103.200	-0.242	0.100
103.300	-17.795	0.100
103.400	-10.909	0.100
103.500	-8.637	0.100
103.600	3.749	0.100
103.700	-10.759	0.100
103.800	-12.868	0.100
103.900	-10.180	0.100
104.000	16.644	0.100
104.100	9.150	0.100
104.200	-35.874	0.100
104.300	-19.237	0.099
104.400	5.859	0.099
104.500	-10.776	0.099
104.600	-14.235	0.099
104.700	10.975	0.099
104.800	-5.634	0.099
104.900	-7.252	0.099
105.000	-22.628	0.099
105.100	-1.891	0.099
105.200	-15.898	0.099
105.300	-14.030	0.099
105.400	-4.677	0.099
105.500	-10.215	0.099
105.600	-7.287	0.099
105.700	-8.384	0.099
105.800	-23.323	0.099
105.900	9.024	0.099
106.000	-1.441	0.099
106.100	-10.140	0.099
106.200	-15.900	0.099
106.300	-7.016	0.099
106.400	-17.160	0.099
106.500	-14.924	0.099
106.600	-8.827	0.099
106.700	-20.912	0.099
106.800	-0.434	0.099
106.900	-14.079	0.099
107.000	-4.463	0.099
107.100	-31.671	0.099
107.200	28.919	0.099
107.300	-9.347	0.099
107.400	-4.816	0.099
107.500	-19.453	0.099
107.600	-1.770	0.099
107.700	-6.075	0.099
107.800	-25.390	0.099
107.900	3.772	0.099
108.000	-23.481	0.099
108.100	-17.083	0.099
108.200	-18.366	0.099
108.300	-19.312	0.099
108.400	-2.854	0.099
108.500	-1.917	0.099
108.600	-2.515	0.099
108.700	-5.712	0.099
108.800	-11.756	0.099
108.900	-9.939	0.099
109.000	-12.005	0.099
109.100	0.916	0.099
109.200	-19.751	0.099
109.300	-5.952	0.099
109.400	-12.445	0.099
109.500	-22.171	0.099
109.600	-25.344	0.099
109.700	-16.790	0.099
109.800	-8.181	0.099
109.900	-9.639	0.099
110.000	2.805	0.099
110.100	-14.640	0.099
110.200	-10.120	0.099
110.300	-19.817	0.099
110.400	-23.855	0.099
110.500	-9.312	0.099
110.600	-10.979	0.099
110.700	-18.140	0.099
110.800	-11.201	0.099
110.900	-13.124	0.099
111.000	-3.360	0.099
111.100	-17.289	0.099
111.200	-36.650	0.099
111.300	-3.557	0.099
111.400	-17.008	0.099
111.500	-5.161	0.099
111.600	-20.109	0.099
111.700	-28.795	0.099
111.800	-11.328	0.099
111.900	-21.850	0.099
112.000	-24.851	0.099
112.100	-5.668	0.099
112.200	-15.192	0.099
112.300	-12.220	0.099
112.400	-23.011	0.099
112.500	3.249	0.099
112.600	-15.442	0.099
112.700	-12.253	0.099
112.800	-19.732	0.099
112.900	-4.327	0.099
113.000	-18.088	0.099
113.100	-2.013	0.099
113.200	-13.703	0.099
113.300	-6.255	0.099
113.400	-19.288	0.099
113.500	-8.806	0.099
113.600	-17.827	0.099
113.700	-26.180	0.099
113.800	-3.474	0.099
113.900	-19.559	0.099
114.000	-28.279	0.099
114.100	-12.620	0.099
114.200	-12.200	0.099
114.300	-30.408	0.099
114.400	-2.082	0.099
114.500	-12.423	0.099
114.600	-22.751	0.099
114.700	-14.401	0.099
114.800	-9.119	0.099
114.900	-32.994	0.099
115.000	-8.493	0.099
115.100	3.444	0.099
115.200	-11.897	0.099
115.300	-21.800	0.099
115.400	-27.273	0.099
115.500	-31.543	0.099
115.600	-11.707	0.099
115.700	-23.699	0.099
115.800	-15.418	0.099
115.900	-7.602	0.099
116.000	-12.616	0.099
116.100	4.264	0.099
116.200	0.346	0.099
116.300	-8.446	0.099
116.400	-10.920	0.099
116.500	-39.023	0.099
116.600	-30.830	0.099
116.700	-3.205	0.099
116.800	-9.055	0.099
116.900	-36.839	0.099
117.000	-22.861	0.099
117.100	-4.873	0.099
117.200	-21.503	0.099
117.300	-35.381	0.099
117.400	-13.510	0.099
117.500	-16.853	0.099
117.600	-20.681	0.099
117.700	-25.778	0.099
117.800	-16.231	0.099
117.900	-7.618	0.099
118.000	-21.777	0.099
118.100	-13.538	0.099
118.200	-23.934	0.099
118.300	-17.475	0.099
118.400	-16.060	0.099
118.500	-10.534	0.099
118.600	-11.161	0.099
118.700	-33.211	0.099
118.800	-10.661	0.099
118.900	-31.187	0.099
119.000	-24.985	0.099
119.100	-12.373	0.099
119.200	-4.799	0.099
119.300	-4.248	0.099
119.400	-10.631	0.099
119.500	-11.422	0.099
119.600	-14.984	0.099
119.700	-15.027	0.099
119.800	-29.057	0.099
119.900	-25.629	0.099
120.000	-17.761	0.099
120.100	-16.389	0.099
120.200	-6.910	0.099
120.300	-32.941	0.099
120.400	-14.573	0.099
120.500	-5.046	0.099
120.600	-11.569	0.099
120.700	-21.623	0.099
120.800	-10.446	0.099
120.900	-19.187	0.099
121.000	-20.635	0.099
121.100	-17.227	0.099
121.200	-6.377	0.099
121.300	-8.006	0.099
121.400	-16.350	0.099
121.500	-16.328	0.099
121.600	-16.153	0.099
121.700	-10.300	0.099
121.800	-12.310	0.099
121.900	-27.637	0.099
122.000	-1.214	0.099
122.100	-17.637	0.099
122.200	-19.902	0.099
122.300	-23.387	0.099
122.400	-8.888	0.099
122.500	-12.802	0.099
122.600	-22.936	0.099
122.700	-29.549	0.099
122.800	-0.641	0.099
122.900	-13.848	0.099
123.000	-19.343	0.099
123.100	-29.834	0.099
123.200	-8.931	0.099
123.300	-19.387	0.099
123.400	-30.301	0.099
123.500	-17.222	0.099
123.600	-19.698	0.099
123.700	-13.225	0.099
123.800	-23.837	0.100
123.900	-27.978	0.100
124.000	-21.205	0.100
124.100	-10.956	0.100
124.200	-23.737	0.100
124.300	-19.566	0.100
124.400	-27.577	0.100
124.500	-33.727	0.100
124.600	-10.957	0.100
124.700	2.037	0.100
124.800	-12.041	0.100
124.900	-20.701	0.100
125.000	-5.400	0.100
125.100	-1.380	0.100
125.200	-20.199	0.100
125.300	-4.229	0.100
125.400	-20.603	0.100
125.500	-15.774	0.100
125.600	-20.268	0.100
125.700	-13.670	0.100
125.800	-13.328	0.100
125.900	-14.368	0.100
126.000	-12.533	0.100
126.100	-24.006	0.100
126.200	-36.774	0.100
126.300	-22.429	0.100
126.400	-23.190	0.100
126.500	-21.535	0.099
126.600	-9.290	0.099
126.700	-27.329	0.100
126.800	-26.113	0.100
126.900	-18.149	0.100
127.000	-22.954	0.100
127.100	-19.364	0.100
127.200	-22.000	0.100
127.300	-22.927	0.100
127.400	-21.700	0.100
127.500	-20.034	0.100
127.600	-33.553	0.100
127.700	-13.130	0.100
127.800	-12.044	0.100
127.900	-21.755	0.100
128.000	-11.110	0.100
128.100	-18.854	0.100
128.200	-19.745	0.100
128.300	-23.637	0.100
128.400	-31.007	0.100
128.500	-26.344	0.100
128.600	-11.418	0.100
128.700	-20.739	0.100
128.800	-28.052	0.100
128.900	-21.536	0.100
129.000	-20.948	0.100
129.100	-21.113	0.100
129.200	-12.728	0.100
129.300	-21.363	0.100
129.400	-22.065	0.100
129.500	-28.890	0.100
129.600	-32.812	0.100
129.700	-24.282	0.100
129.800	-15.155	0.100
129.900	-2.890	0.100
130.000	-11.693	0.100
130.100	-31.269	0.100
130.200	-28.184	0.100
130.300	-5.043	0.100
130.400	-17.917	0.100
130.500	-7.939	0.100
130.600	-38.482	0.100
130.700	-25.759	0.100
130.800	-1.903	0.100
130.900	-4.092	0.100
131.000	-20.103	0.100
131.100	-4.932	0.100
131.200	-30.667	0.100
131.300	-12.512	0.100
131.400	-20.211	0.100
131.500	-23.463	0.100
131.600	-31.373	0.100
131.700	-9.935	0.100
131.800	-9.048	0.100
131.900	-31.889	0.100
132.000	-10.792	0.100
132.100	-21.366	0.100
132.200	-11.583	0.100
132.300	-32.257	0.100
132.400	-12.199	0.100
132.500	-20.698	0.100
132.600	-9.019	0.100
132.700	-21.890	0.100
132.800	-11.448	0.100
132.900	-22.542	0.100
133.000	-20.144	0.100
133.100	-12.891	0.100
133.200	-24.614	0.100
133.300	-14.984	0.100
133.400	-21.919	0.100
133.500	-24.295	0.100
133.600	-35.723	0.100
133.700	-28.194	0.100
133.800	-13.299	0.100
133.900	-17.838	0.100
134.000	-22.434	0.100
134.100	-22.370	0.100
134.200	-7.444	0.100
134.300	-19.036	0.100
134.400	-26.346	0.100
134.500	-3.882	0.100
134.600	-29.812	0.100
134.700	-41.704	0.100
134.800	-14.857	0.100
134.900	-22.362	0.100
135.000	-5.813	0.100
135.100	-10.586	0.100
135.200	-23.360	0.100
135.300	-7.389	0.100
135.400	-18.889	0.100
135.500	-28.052	0.100
135.600	-10.636	0.100
135.700	-10.839	0.100
135.800	-17.259	0.100
135.900	-20.478	0.100
136.000	-15.079	0.100
136.100	-17.286	0.100
136.200	-40.113	0.100
136.300	-13.386	0.100
136.400	-25.777	0.100
136.500	-24.432	0.100
136.600	-8.094	0.100
136.700	-24.814	0.100
136.800	-5.968	0.100
136.900	-6.736	0.100
137.000	-31.506	0.100
137.100	-12.737	0.100
137.200	-27.697	0.100
137.300	-8.375	0.100
137.400	-15.478	0.100
137.500	-32.369	0.100
137.600	-2.112	0.100
137.700	-29.978	0.100
137.800	-13.334	0.100
137.900	-8.486	0.100
138.000	-17.531	0.100
138.100	-16.416	0.100
138.200	-25.851	0.100
138.300	-32.351	0.100
138.400	-14.583	0.100
138.500	-20.281	0.100
138.600	-9.146	0.100
138.700	-22.328	0.100
138.800	-18.403	0.100
138.900	-31.858	0.100
139.000	2.275	0.100
139.100	-30.476	0.100
139.200	-25.935	0.100
139.300	-18.230	0.100
139.400	-6.890	0.100
139.500	-33.508	0.100
139.600	-23.233	0.100
139.700	-34.187	0.100
139.800	-10.889	0.100
139.900	-5.080	0.100
140.000	-34.723	0.100
140.100	-41.302	0.100
140.200	-31.630	0.100
140.300	-0.840	0.100
140.400	-10.423	0.100
140.500	-13.609	0.100
140.600	-29.763	0.100
140.700	-20.457	0.100
140.800	-27.383	0.100
140.900	-12.953	0.100
141.000	-21.909	0.100
141.100	-8.453	0.100
141.200	-17.507	0.100
141.300	-17.946	0.100
141.400	-15.671	0.100
141.500	-25.778	0.100
141.600	-8.248	0.100
141.700	-10.478	0.100
141.800	-24.618	0.100
141.900	-33.612	0.100
142.000	-12.195	0.100
142.100	-1.094	0.100
142.200	-26.374	0.100
142.300	-15.327	0.100
142.400	2.112	0.100
142.500	-11.325	0.100
142.600	-11.552	0.100
142.700	-18.159	0.100
142.800	-19.162	0.100
142.900	-18.521	0.100
143.000	-30.747	0.100
143.100	-22.255	0.100
143.200	-7.598	0.100
143.300	-12.732	0.100
143.400	-12.546	0.100
143.500	-19.908	0.100
143.600	-22.564	0.100
143.700	-27.293	0.100
143.800	-20.663	0.100
143.900	-12.100	0.100
144.000	-10.887	0.100
144.100	-21.871	0.100
144.200	-11.827	0.100
144.300	-25.910	0.100
144.400	-14.193	0.100
144.500	-27.734	0.100
144.600	3.597	0.100
144.700	-7.180	0.100
144.800	-15.979	0.100
144.900	-14.509	0.100
145.000	-20.238	0.100
145.100	-30.013	0.100
145.200	-17.523	0.100
145.300	-25.007	0.100
145.400	-21.469	0.100
145.500	-9.752	0.100
145.600	-33.304	0.100
145.700	-19.701	0.100
145.800	-22.086	0.100
145.900	-5.447	0.100
146.000	-17.990	0.100
146.100	-24.654	0.100
146.200	-32.625	0.100
146.300	-1.337	0.100
146.400	-16.906	0.100
146.500	-3.396	0.100
146.600	-30.556	0.100
146.700	-23.600	0.100
146.800	-7.463	0.100
146.900	-20.011	0.100
147.000	-8.877	0.100
147.100	-22.590	0.100
147.200	-28.012	0.100
147.300	-9.747	0.100
147.400	-24.271	0.100
147.500	-9.300	0.100
147.600	-15.763	0.100
147.700	-17.614	0.100
147.800	-33.032	0.100
147.900	-11.900	0.100
148.000	0.776	0.100
148.100	-42.978	0.100
148.200	1.065	0.100
148.300	-14.043	0.100
148.400	-21.392	0.100
148.500	-8.094	0.100
148.600	-19.535	0.100
148.700	-28.898	0.100
148.800	-6.647	0.100
148.900	-29.367	0.100
149.000	-9.203	0.100
149.100	-3.484	0.100
149.200	-28.547	0.100
149.300	-25.482	0.100
149.400	-14.250	0.100
149.500	-22.511	0.100
149.600	-7.941	0.100
149.700	-6.613	0.100
149.800	-5.621	0.100
149.900	-19.796	0.100
150.000	-14.350	0.100
150.100	-24.947	0.100
150.200	-25.755	0.100
150.300	-16.350	0.100
150.400	-22.964	0.100
150.500	-15.596	0.100
150.600	-25.971	0.100
150.700	-15.976	0.100
150.800	-7.511	0.100
150.900	-24.848	0.100
151.000	-21.987	0.100
151.100	-7.779	0.100
151.200	-16.964	0.100
151.300	-26.930	0.100
151.400	-26.196	0.100
151.500	-25.963	0.100
151.600	-10.796	0.100
151.700	-35.720	0.100
151.800	-2.880	0.100
151.900	-22.048	0.100
152.000	-18.305	0.100
152.100	-10.330	0.100
152.200	-14.576	0.100
152.300	-21.010	0.100
152.400	-20.911	0.100
152.500	-23.251	0.100
152.600	-14.445	0.100
152.700	-18.788	0.100
152.800	-10.943	0.100
152.900	-31.874	0.100
153.000	-28.001	0.100
153.100	-9.408	0.100
153.200	-17.221	0.100
153.300	-7.306	0.100
153.400	-23.631	0.100
153.500	-35.691	0.100
153.600	-2.071	0.100
153.700	4.816	0.100
153.800	-18.003	0.100
153.900	-30.572	0.100
154.000	-14.441	0.100
154.100	-15.542	0.100
154.200	-21.742	0.100
154.300	-28.579	0.100
154.400	-6.700	0.100
154.500	-21.819	0.100
154.600	-15.704	0.100
154.700	-17.150	0.100
154.800	-22.890	0.100
154.900	-21.454	0.100
155.000	-5.859	0.100
155.100	-12.157	0.100
155.200	-14.612	0.100
155.300	1.187	0.100
155.400	-1.834	0.100
155.500	-7.685	0.100
155.600	-21.848	0.100
155.700	-12.279	0.100
155.800	-13.625	0.100
155.900	-14.438	0.100
156.000	-21.105	0.100
156.100	-16.560	0.100
156.200	-4.539	0.100
156.300	-20.294	0.100
156.400	-8.224	0.100
156.500	-26.098	0.100
156.600	-25.499	0.100
156.700	-18.515	0.100
156.800	-15.822	0.100
156.900	-27.015	0.100
157.000	-3.477	0.100
157.100	-16.043	0.100
157.200	-9.515	0.100
157.300	-15.760	0.100
157.400	-13.154	0.100
157.500	-8.604	0.100
157.600	-24.864	0.100
157.700	-20.917	0.100
157.800	-24.930	0.100
157.900	-13.647	0.100
158.000	-14.409	0.100
158.100	-20.774	0.100
158.200	-28.826	0.100
158.300	-24.081	0.100
158.400	-18.192	0.100
158.500	-6.084	0.100
158.600	-21.536	0.100
158.700	0.922	0.100
158.800	-26.275	0.100
158.900	-17.454	0.100
159.000	-21.813	0.100
159.100	-22.452	0.100
159.200	7.761	0.100
159.300	-13.479	0.100
159.400	-20.918	0.100
159.500	-10.321	0.100
159.600	-23.524	0.100
159.700	-2.416	0.100
159.800	-19.841	0.100
159.900	-11.110	0.100
160.000	-15.086	0.100
160.100	-34.112	0.100
160.200	-21.731	0.100
160.300	-14.668	0.100
160.400	-28.593	0.100
160.500	-14.013	0.099
160.600	-2.775	0.100
160.700	-19.556	0.100
160.800	-20.365	0.100
160.900	-22.721	0.099
161.000	-18.752	0.100
161.100	-7.783	0.100
161.200	-10.258	0.100
161.300	-8.314	0.100
161.400	-22.828	0.100
161.500	-28.095	0.100
161.600	-26.225	0.100
161.700	-10.435	0.100
161.800	-13.852	0.100
161.900	-16.171	0.100
162.000	-20.227	0.100
162.100	-27.081	0.100
162.200	-19.299	0.100
162.300	-30.483	0.100
162.400	-11.901	0.100
162.500	-4.210	0.100
162.600	-16.511	0.100
162.700	-16.464	0.100
162.800	-7.625	0.100
162.900	-15.780	0.100
163.000	-18.046	0.100
163.100	9.841	0.100
163.200	-21.586	0.100
163.300	-11.600	0.100
163.400	-34.758	0.100
163.500	-23.863	0.100
163.600	1.822	0.100
163.700	-21.715	0.100
163.800	-8.246	0.100
163.900	-25.631	0.100
164.000	-29.980	0.100
164.100	-14.331	0.100
164.200	-12.342	0.100
164.300	-20.784	0.100
164.400	-17.981	0.100
164.500	-13.318	0.099
164.600	-9.267	0.100
164.700	-21.401	0.100
164.800	-19.288	0.100
164.900	-24.045	0.100
165.000	-15.900	0.100
165.100	9.797	0.100
165.200	-26.561	0.100
165.300	-46.410	0.100
165.400	-14.419	0.100
165.500	-5.946	0.100
165.600	-26.141	0.100
165.700	-18.126	0.100
165.800	-20.406	0.100
165.900	-18.365	0.100
166.000	-21.457	0.100
166.100	-20.309	0.100
166.200	-10.113	0.099
166.300	-17.096	0.100
166.400	-7.638	0.100
166.500	-12.683	0.100
166.600	-37.482	0.100
166.700	-26.084	0.100
166.800	-18.718	0.100
166.900	-16.655	0.099
167.000	-17.568	0.100
167.100	-11.192	0.100
167.200	-7.716	0.100
167.300	-18.984	0.100
167.400	-10.757	0.100
167.500	-31.524	0.100
167.600	-12.979	0.100
167.700	-13.068	0.100
167.800	-6.610	0.100
167.900	-23.354	0.100
168.000	-39.616	0.100
168.100	-14.142	0.100
168.200	-21.103	0.100
168.300	-19.673	0.100
168.400	-11.081	0.100
168.500	-17.964	0.100
168.600	-23.465	0.100
168.700	-17.039	0.100
168.800	2.754	0.100
168.900	-29.385	0.100
169.000	-13.605	0.100
169.100	-2.442	0.100
169.200	-21.940	0.100
169.300	-6.329	0.100
169.400	-8.594	0.100
169.500	-27.921	0.100
169.600	-20.909	0.100
169.700	-24.651	0.100
169.800	-8.486	0.100
169.900	-29.458	0.100
170.000	-22.449	0.100
170.100	-13.457	0.100
170.200	-14.126	0.100
170.300	-46.980	0.100
170.400	-12.796	0.100
170.500	-5.757	0.100
170.600	-3.512	0.100
170.700	-40.060	0.100
170.800	-5.207	0.100
170.900	-5.207	0.100
171.000	-11.614	0.100
171.100	-19.227	0.100
171.200	-24.714	0.100
171.300	-23.087	0.100
171.400	-6.462	0.100
171.500	-21.341	0.100
171.600	-20.695	0.100
171.700	-14.765	0.100
171.800	-13.826	0.100
171.900	-15.576	0.100
172.000	-22.337	0.100
172.100	-17.867	0.100
172.200	2.483	0.100
172.300	-19.133	0.100
172.400	-24.159	0.100
172.500	-18.021	0.100
172.600	-37.843	0.100
172.700	-17.405	0.100
172.800	-10.609	0.100
172.900	-7.544	0.100
173.000	-7.044	0.100
173.100	-17.794	0.100
173.200	-22.964	0.100
173.300	-0.587	0.100
173.400	-5.488	0.100
173.500	-1.114	0.100
173.600	-10.966	0.100
173.700	-15.050	0.100
173.800	-14.259	0.100
173.900	-6.545	0.100
174.000	-16.559	0.100
174.100	-27.769	0.100
174.200	-10.740	0.100
174.300	-14.409	0.100
174.400	-12.302	0.100
174.500	-15.951	0.100
174.600	-8.955	0.100
174.700	-14.409	0.100
174.800	-27.559	0.100
174.900	-1.569	0.100
175.000	-16.936	0.100
175.100	-17.237	0.100
175.200	-16.425	0.100
175.300	-16.499	0.100
175.400	-5.523	0.100
175.500	-13.116	0.100
175.600	-16.362	0.100
175.700	-14.945	0.100
175.800	-15.211	0.100
175.900	-24.205	0.100
176.000	-33.490	0.100
176.100	-18.190	0.100
176.200	-9.226	0.100
176.300	-4.992	0.100
176.400	-14.793	0.100
176.500	-9.890	0.100
176.600	-17.040	0.100
176.700	-12.751	0.100
176.800	4.341	0.100
176.900	-27.301	0.100
177.000	-21.598	0.100
177.100	-6.125	0.100
177.200	-33.882	0.100
177.300	-6.290	0.100
177.400	-18.678	0.100
177.500	-12.811	0.100
177.600	-23.175	0.100
177.700	-12.096	0.100
177.800	9.025	0.100
177.900	-20.599	0.100
178.000	-15.975	0.100
178.100	-11.374	0.100
178.200	-21.015	0.100
178.300	-29.352	0.100
178.400	-15.921	0.100
178.500	-17.348	0.100
178.600	-25.203	0.100
178.700	-19.163	0.100
178.800	-8.871	0.100
178.900	-24.064	0.100
179.000	-16.342	0.100
179.100	-25.250	0.100
179.200	4.147	0.100
179.300	-7.274	0.100
179.400	-17.673	0.100
179.500	-41.235	0.100
179.600	-9.623	0.100
179.700	-12.415	0.100
179.800	10.389	0.100
179.900	-8.769	0.100
180.000	8.183	0.100
180.100	16.753	0.100
180.200	-9.111	0.100
180.300	1.945	0.100
180.400	10.631	0.100
180.500	12.493	0.100
180.600	17.576	0.100
180.700	31.134	0.100
180.800	6.717	0.100
180.900	18.959	0.100
181.000	24.371	0.100
181.100	9.181	0.100
181.200	3.008	0.100
181.300	20.587	0.100
181.400	3.920	0.100
181.500	16.077	0.100
181.600	18.961	0.100
181.700	10.419	0.100
181.800	17.602	0.100
181.900	15.192	0.100
182.000	20.124	0.100
182.100	11.884	0.100
182.200	17.606	0.100
182.300	27.964	0.100
182.400	11.254	0.100
182.500	12.117	0.100
182.600	23.124	0.100
182.700	16.743	0.100
182.800	2.660	0.099
182.900	2.529	0.100
183.000	38.057	0.100
183.100	11.277	0.100
183.200	23.571	0.100
183.300	13.976	0.100
183.400	15.719	0.100
183.500	11.027	0.100
183.600	23.715	0.100
183.700	-11.993	0.100
183.800	17.453	0.100
183.900	10.383	0.100
184.000	7.053	0.100
184.100	8.275	0.100
184.200	12.642	0.100
184.300	11.371	0.100
184.400	19.864	0.100
184.500	-0.672	0.100
184.600	14.722	0.100
184.700	12.027	0.100
184.800	10.271	0.100
184.900	7.033	0.100
185.000	15.195	0.100
185.100	12.760	0.100
185.200	6.156	0.100
185.300	14.645	0.100
185.400	-0.530	0.100
185.500	21.701	0.100
185.600	23.460	0.100
185.700	21.054	0.100
185.800	8.528	0.100
185.900	7.118	0.100
186.000	17.153	0.100
186.100	-1.074	0.100
186.200	7.447	0.100
186.300	11.827	0.100
186.400	17.660	0.100
186.500	14.379	0.100
186.600	30.646	0.100
186.700	6.889	0.100
186.800	9.769	0.099
186.900	10.799	0.100
187.000	0.229	0.100
187.100	10.556	0.100
187.200	17.740	0.100
187.300	20.498	0.100
187.400	19.689	0.100
187.500	9.007	0.100
187.600	28.780	0.100
187.700	18.906	0.100
187.800	38.070	0.100
187.900	24.979	0.100
188.000	22.888	0.100
188.100	14.856	0.100
188.200	10.621	0.100
188.300	39.631	0.100
188.400	20.079	0.100
188.500	26.870	0.100
188.600	20.079	0.100
188.700	38.805	0.100
188.800	16.865	0.100
188.900	22.605	0.100
189.000	17.986	0.100
189.100	36.113	0.100
189.200	31.040	0.100
189.300	24.196	0.100
189.400	23.228	0.100
189.500	16.776	0.100
189.600	22.743	0.100
189.700	26.970	0.100
189.800	20.150	0.100
189.900	31.848	0.100
190.000	13.436	0.100
190.100	36.600	0.100
190.200	33.950	0.100
190.300	36.795	0.100
190.400	27.700	0.100
190.500	24.946	0.100
190.600	29.899	0.100
190.700	30.462	0.100
190.800	25.345	0.100
190.900	38.477	0.100
191.000	32.635	0.100
191.100	25.260	0.100
191.200	32.551	0.100
191.300	32.011	0.100
191.400	32.098	0.100
191.500	32.768	0.100
191.600	28.520	0.100
191.700	27.046	0.100
191.800	33.475	0.100
191.900	34.165	0.099
192.000	33.258	0.100
192.100	39.660	0.100
192.200	29.108	0.100
192.300	51.879	0.100
192.400	26.653	0.100
192.500	41.855	0.100
192.600	44.997	0.100
192.700	36.135	0.100
192.800	31.800	0.100
192.900	27.534	0.100
193.000	33.568	0.100
193.100	39.731	0.100
193.200	38.328	0.100
193.300	38.340	0.100
193.400	42.815	0.099
193.500	35.511	0.099
193.600	50.450	0.100
193.700	28.754	0.100
193.800	30.613	0.100
193.900	31.825	0.100
194.000	44.697	0.100
194.100	30.273	0.100
194.200	47.963	0.100
194.300	46.104	0.100
194.400	34.122	0.100
194.500	33.398	0.100
194.600	43.096	0.100
194.700	42.265	0.100
194.800	35.587	0.100
194.900	51.195	0.100
195.000	39.725	0.100
195.100	45.277	0.100
195.200	33.891	0.100
195.300	49.409	0.100
195.400	30.578	0.100
195.500	30.898	0.100
195.600	41.966	0.100
195.700	49.682	0.100
195.800	27.025	0.099
195.900	50.115	0.099
196.000	53.253	0.100
196.100	38.734	0.100
196.200	37.129	0.100
196.300	37.517	0.100
196.400	42.883	0.100
196.500	43.340	0.100
196.600	52.771	0.100
196.700	35.192	0.100
196.800	42.917	0.100
196.900	43.967	0.100
197.000	48.377	0.100
197.100	39.242	0.100
197.200	42.864	0.100
197.300	25.887	0.100
197.400	39.838	0.100
197.500	44.591	0.100
197.600	30.308	0.100
197.700	36.444	0.100
197.800	39.958	0.100
197.900	37.770	0.100
198.000	46.056	0.100
198.100	46.090	0.100
198.200	40.875	0.100
198.300	33.536	0.100
198.400	37.694	0.100
198.500	39.450	0.100
198.600	37.423	0.100
198.700	19.060	0.100
198.800	34.126	0.100
198.900	53.540	0.100
199.000	36.803	0.100
199.100	31.969	0.100
199.200	54.300	0.100
199.300	29.875	0.100
199.400	48.450	0.100
199.500	55.363	0.100
199.600	41.700	0.100
199.700	42.052	0.100
199.800	33.989	0.100
199.900	50.543	0.100
200.000	21.138	0.100
200.100	39.727	0.100
200.200	47.755	0.100
200.300	56.194	0.100
200.400	44.673	0.100
200.500	40.069	0.100
200.600	51.326	0.100
200.700	46.110	0.100
200.800	30.890	0.100
200.900	38.898	0.100
201.000	44.552	0.100
201.100	29.946	0.100
201.200	38.280	0.100
201.300	43.542	0.100
201.400	66.738	0.100
201.500	53.221	0.100
201.600	44.082	0.100
201.700	22.427	0.100
201.800	34.127	0.100
201.900	47.440	0.100
202.000	47.330	0.100
202.100	57.863	0.100
202.200	42.873	0.100
202.300	30.113	0.100
202.400	37.069	0.100
202.500	26.242	0.100
202.600	37.544	0.100
202.700	51.760	0.100
202.800	48.818	0.100
202.900	56.516	0.100
203.000	37.798	0.100
203.100	46.344	0.100
203.200	43.093	0.100
203.300	40.256	0.100
203.400	43.027	0.100
203.500	39.192	0.100
203.600	51.847	0.100
203.700	42.805	0.100
203.800	51.595	0.100
203.900	29.101	0.100
204.000	47.228	0.100
204.100	60.095	0.100
204.200	55.017	0.100
204.300	43.947	0.100
204.400	31.400	0.100
204.500	28.933	0.100
204.600	50.587	0.100
204.700	45.360	0.100
204.800	43.656	0.100
204.900	39.654	0.100
205.000	32.766	0.100
205.100	43.674	0.100
205.200	46.528	0.100
205.300	46.412	0.100
205.400	48.972	0.100
205.500	43.394	0.100
205.600	45.297	0.100
205.700	29.712	0.100
205.800	36.826	0.100
205.900	54.322	0.100
206.000	54.958	0.100
206.100	41.882	0.100
206.200	49.783	0.100
206.300	34.099	0.100
206.400	36.872	0.100
206.500	40.411	0.100
206.600	47.743	0.100
206.700	40.956	0.100
206.800	49.982	0.100
206.900	67.655	0.100
207.000	28.448	0.100
207.100	37.852	0.100
207.200	18.447	0.100
207.300	46.055	0.100
207.400	38.776	0.100
207.500	34.459	0.100
207.600	47.788	0.100
207.700	62.186	0.100
207.800	49.658	0.100
207.900	41.259	0.100
208.000	51.689	0.100
208.100	51.623	0.100
208.200	44.327	0.100
208.300	29.859	0.100
208.400	56.536	0.100
208.500	45.697	0.100
208.600	46.533	0.100
208.700	61.108	0.100
208.800	31.293	0.100
208.900	48.119	0.100
209.000	46.734	0.100
209.100	22.059	0.100
209.200	25.614	0.100
209.300	59.077	0.100
209.400	40.555	0.100
209.500	45.008	0.100
209.600	46.781	0.100
209.700	49.285	0.100
209.800	36.674	0.100
209.900	43.141	0.100
210.000	57.038	0.100
210.100	19.108	0.100
210.200	29.079	0.100
210.300	62.796	0.100
210.400	36.541	0.100
210.500	39.181	0.100
210.600	52.127	0.100
210.700	37.028	0.100
210.800	57.695	0.100
210.900	42.495	0.100
211.000	42.184	0.100
211.100	23.325	0.100
211.200	52.942	0.100
211.300	48.318	0.100
211.400	49.625	0.100
211.500	46.293	0.100
211.600	38.580	0.100
211.700	58.247	0.100
211.800	47.566	0.100
211.900	34.176	0.100
212.000	40.223	0.100
212.100	43.868	0.100
212.200	35.370	0.100
212.300	40.065	0.100
212.400	51.755	0.100
212.500	43.845	0.100
212.600	20.555	0.100
212.700	49.585	0.100
212.800	38.058	0.100
212.900	46.210	0.100
213.000	63.367	0.100
213.100	36.746	0.100
213.200	45.791	0.100
213.300	48.793	0.100
213.400	43.431	0.100
213.500	46.413	0.100
213.600	51.880	0.100
213.700	47.165	0.100
213.800	45.311	0.100
213.900	45.142	0.100
214.000	53.897	0.099
214.100	25.540	0.100
214.200	58.781	0.100
214.300	48.552	0.100
214.400	47.645	0.100
214.500	58.798	0.100
214.600	48.883	0.100
214.700	44.222	0.100
214.800	34.934	0.099
214.900	46.189	0.100
215.000	61.523	0.100
215.100	48.376	0.100
215.200	44.284	0.100
215.300	42.813	0.100
215.400	47.981	0.100
215.500	30.019	0.100
215.600	52.788	0.099
215.700	43.431	0.100
215.800	54.281	0.100
215.900	34.116	0.100
216.000	53.096	0.100
216.100	29.996	0.100
216.200	42.845	0.100
216.300	36.370	0.100
216.400	50.420	0.100
216.500	54.575	0.100
216.600	42.971	0.100
216.700	45.548	0.100
216.800	47.805	0.100
216.900	32.880	0.100
217.000	41.709	0.100
217.100	48.089	0.100
217.200	35.183	0.100
217.300	35.877	0.100
217.400	39.803	0.100
217.500	45.952	0.100
217.600	46.739	0.100
217.700	57.498	0.100
217.800	47.953	0.100
217.900	45.021	0.100
218.000	30.524	0.100
218.100	45.471	0.100
218.200	58.248	0.100
218.300	53.373	0.100
218.400	47.889	0.100
218.500	43.777	0.100
218.600	48.288	0.100
218.700	39.190	0.100
218.800	44.225	0.100
218.900	60.325	0.100
219.000	56.702	0.100
219.100	48.882	0.100
219.200	56.305	0.100
219.300	38.153	0.100
219.400	33.844	0.100
219.500	46.704	0.100
219.600	38.396	0.100
219.700	44.213	0.100
219.800	57.566	0.100
219.900	40.721	0.100
220.000	42.377	0.100
220.100	38.273	0.100
220.200	63.038	0.100
220.300	49.524	0.100
220.400	48.023	0.100
220.500	42.347	0.100
220.600	55.525	0.100
220.700	28.715	0.100
220.800	43.715	0.100
220.900	50.337	0.100
221.000	60.887	0.100
221.100	44.543	0.100
221.200	25.538	0.100
221.300	32.875	0.100
221.400	35.241	0.100
221.500	69.510	0.100
221.600	42.029	0.100
221.700	46.962	0.100
221.800	45.562	0.100
221.900	49.865	0.100
222.000	24.305	0.100
222.100	53.214	0.100
222.200	53.087	0.100
222.300	40.169	0.100
222.400	50.548	0.100
222.500	52.797	0.100
222.600	49.225	0.100
222.700	53.756	0.100
222.800	40.901	0.100
222.900	46.565	0.100
223.000	43.984	0.100
223.100	56.273	0.100
223.200	42.466	0.100
223.300	50.107	0.100
223.400	56.142	0.100
223.500	50.527	0.100
223.600	48.030	0.100
223.700	47.071	0.100
223.800	64.745	0.100
223.900	53.176	0.100
224.000	48.871	0.100
224.100	48.103	0.100
224.200	50.604	0.100
224.300	44.609	0.100
224.400	40.673	0.100
224.500	57.055	0.100
224.600	46.910	0.100
224.700	47.523	0.100
224.800	47.647	0.100
224.900	51.097	0.100
225.000	45.643	0.100
225.100	47.930	0.100
225.200	61.595	0.100
225.300	40.387	0.100
225.400	45.117	0.100
225.500	56.194	0.100
225.600	54.003	0.100
225.700	61.813	0.100
225.800	43.937	0.100
225.900	32.208	0.100
226.000	53.645	0.100
226.100	59.036	0.100
226.200	46.176	0.099
226.300	52.192	0.100
226.400	56.392	0.100
226.500	42.961	0.100
226.600	46.606	0.100
226.700	57.614	0.100
226.800	39.840	0.100
226.900	48.508	0.100
227.000	28.423	0.100
227.100	42.968	0.100
227.200	47.255	0.100
227.300	72.323	0.100
227.400	49.891	0.100
227.500	30.628	0.100
227.600	42.129	0.100
227.700	47.196	0.100
227.800	58.696	0.100
227.900	32.546	0.100
228.000	64.174	0.100
228.100	40.486	0.100
228.200	50.269	0.100
228.300	60.678	0.100
228.400	53.723	0.100
228.500	55.241	0.100
228.600	51.157	0.100
228.700	37.180	0.100
228.800	51.515	0.100
228.900	50.751	0.100
229.000	45.576	0.100
229.100	41.467	0.100
229.200	62.575	0.100
229.300	64.068	0.100
229.400	42.251	0.100
229.500	47.633	0.100
229.600	43.744	0.100
229.700	44.299	0.100
229.800	54.902	0.100
229.900	40.671	0.100
230.000	53.266	0.100
230.100	43.427	0.100
230.200	23.543	0.100
230.300	66.206	0.100
230.400	51.079	0.100
230.500	69.161	0.100
230.600	41.419	0.100
230.700	57.679	0.100
230.800	51.230	0.100
230.900	47.817	0.100
231.000	54.080	0.100
231.100	58.445	0.100
231.200	47.478	0.100
231.300	29.223	0.100
231.400	36.580	0.100
231.500	56.007	0.100
231.600	57.204	0.100
231.700	49.836	0.100
231.800	46.963	0.100
231.900	51.224	0.100
232.000	51.699	0.100
232.100	55.131	0.100
232.200	49.138	0.100
232.300	53.538	0.100
232.400	54.724	0.100
232.500	45.787	0.100
232.600	53.667	0.100
232.700	64.972	0.100
232.800	46.901	0.100
232.900	46.084	0.100
233.000	61.611	0.100
233.100	58.120	0.100
233.200	60.559	0.100
233.300	47.947	0.100
233.400	58.079	0.100
233.500	52.661	0.100
233.600	54.584	0.100
233.700	48.393	0.100
233.800	48.354	0.100
233.900	54.952	0.100
234.000	53.635	0.100
234.100	53.328	0.100
234.200	38.519	0.100
234.300	53.564	0.100
234.400	61.140	0.100
234.500	55.288	0.100
234.600	61.924	0.100
234.700	63.033	0.100
234.800	45.150	0.100
234.900	48.549	0.100
235.000	43.314	0.100
235.100	42.232	0.100
235.200	54.928	0.100
235.300	61.830	0.100
235.400	48.148	0.100
235.500	37.201	0.100
235.600	53.393	0.100
235.700	58.564	0.100
235.800	33.414	0.100
235.900	52.974	0.100
236.000	54.632	0.100
236.100	55.898	0.100
236.200	63.083	0.100
236.300	49.376	0.100
236.400	25.031	0.100
236.500	43.620	0.100
236.600	46.649	0.100
236.700	62.227	0.100
236.800	44.666	0.100
236.900	53.694	0.100
237.000	50.424	0.100
237.100	56.151	0.100
237.200	47.130	0.100
237.300	57.499	0.100
237.400	55.662	0.100
237.500	48.637	0.100
237.600	56.988	0.100
237.700	47.542	0.100
237.800	66.203	0.100
237.900	37.739	0.100
238.000	67.354	0.100
238.100	48.292	0.100
238.200	53.242	0.100
238.300	43.392	0.100
238.400	54.197	0.100
238.500	46.199	0.100
238.600	69.714	0.100
238.700	62.496	0.100
238.800	31.311	0.100
238.900	51.568	0.100
239.000	67.438	0.100
239.100	52.712	0.100
239.200	40.023	0.100
239.300	56.486	0.100
239.400	53.630	0.100
239.500	44.393	0.100
239.600	48.740	0.100
239.700	43.919	0.100
239.800	41.573	0.100
239.900	63.800	0.100
240.000	32.598	0.100
240.100	26.594	0.100
240.200	24.479	0.100
240.300	23.693	0.100
240.400	27.906	0.100
240.500	24.622	0.100
240.600	34.913	0.100
240.700	17.810	0.100
240.800	8.712	0.100
240.900	13.403	0.100
241.000	9.647	0.100
241.100	-7.991	0.100
241.200	11.401	0.100
241.300	14.155	0.100
241.400	7.460	0.100
241.500	24.681	0.100
241.600	-6.347	0.100
241.700	-14.159	0.100
241.800	-12.406	0.100
241.900	17.863	0.099
242.000	7.632	0.100
242.100	-14.917	0.100
242.200	-11.179	0.100
242.300	-15.333	0.100
242.400	6.488	0.100
242.500	-7.291	0.100
242.600	-14.068	0.100
242.700	-5.570	0.100
242.800	-10.485	0.100
242.900	-7.319	0.100
243.000	-7.435	0.100
243.100	-6.710	0.100
243.200	-3.243	0.100
243.300	12.976	0.100
243.400	-15.139	0.100
243.500	-3.230	0.100
243.600	-20.764	0.100
243.700	9.064	0.100
243.800	-9.137	0.100
243.900	3.374	0.100
244.000	-12.262	0.100
244.100	-17.617	0.100
244.200	-16.539	0.100
244.300	-7.933	0.100
244.400	1.642	0.100
244.500	-1.345	0.100
244.600	-8.753	0.100
244.700	-9.022	0.100
244.800	0.344	0.100
244.900	-9.474	0.100
245.000	12.004	0.100
245.100	-19.182	0.100
245.200	-0.806	0.100
245.300	-2.135	0.100
245.400	-30.936	0.100
245.500	3.166	0.100
245.600	-1.022	0.100
245.700	-15.606	0.100
245.800	4.372	0.100
245.900	6.971	0.100
246.000	-12.835	0.100
246.100	-8.899	0.100
246.200	2.849	0.100
246.300	-22.484	0.100
246.400	1.580	0.100
246.500	0.829	0.100
246.600	-5.335	0.100
246.700	0.241	0.100
246.800	-3.985	0.100
246.900	-16.555	0.100
247.000	-16.157	0.100
247.100	-4.224	0.100
247.200	-13.555	0.100
247.300	-14.195	0.100
247.400	-14.374	0.100
247.500	-32.778	0.100
247.600	-26.800	0.100
247.700	-2.623	0.100
247.800	6.557	0.100
247.900	-10.128	0.100
248.000	-7.538	0.100
248.100	6.449	0.100
248.200	-12.768	0.100
248.300	-4.905	0.100
248.400	2.749	0.100
248.500	-16.943	0.100
248.600	6.930	0.100
248.700	-6.515	0.100
248.800	2.875	0.100
248.900	-15.499	0.100
249.000	-10.064	0.100
249.100	-18.071	0.100
249.200	-17.505	0.100
249.300	-8.723	0.100
249.400	-0.721	0.100
249.500	-4.569	0.100
249.600	5.110	0.100
249.700	-18.961	0.100
249.800	-4.726	0.100
249.900	-17.885	0.100
250.000	-7.944	0.100
250.100	0.938	0.100
250.200	12.371	0.100
250.300	-20.504	0.100
250.400	-12.056	0.100
250.500	-9.067	0.100
250.600	-1.192	0.100
250.700	-15.836	0.100
250.800	-14.947	0.100
250.900	-13.197	0.100
251.000	-5.929	0.100
251.100	-25.661	0.100
251.200	-3.328	0.100
251.300	-0.629	0.100
251.400	-23.635	0.100
251.500	-28.774	0.100
251.600	-0.444	0.100
251.700	-5.701	0.100
251.800	-5.967	0.100
251.900	-7.348	0.100
252.000	-12.153	0.100
252.100	-7.274	0.100
252.200	-21.555	0.100
252.300	-13.785	0.100
252.400	-20.128	0.100
252.500	-9.078	0.100
252.600	-4.396	0.100
252.700	-12.868	0.100
252.800	-9.067	0.100
252.900	-6.043	0.100
253.000	-14.345	0.100
253.100	-18.716	0.100
253.200	-17.602	0.100
253.300	-19.672	0.100
253.400	-13.237	0.100
253.500	-12.990	0.100
253.600	-2.923	0.100
253.700	-10.176	0.100
253.800	-9.795	0.100
253.900	-13.182	0.100
254.000	-21.082	0.100
254.100	-6.620	0.100
254.200	1.589	0.100
254.300	-19.222	0.100
254.400	-5.441	0.100
254.500	-29.305	0.100
254.600	-5.922	0.100
254.700	-4.044	0.100
254.800	-6.780	0.100
254.900	-28.302	0.100
255.000	-14.315	0.100
255.100	-14.724	0.100
255.200	-22.191	0.100
255.300	-10.676	0.100
255.400	-4.661	0.100
255.500	-16.901	0.100
255.600	-9.250	0.100
255.700	-19.368	0.100
255.800	-10.380	0.100
255.900	-15.741	0.100
256.000	-0.094	0.100
256.100	-0.969	0.100
256.200	-8.953	0.100
256.300	-11.160	0.100
256.400	-12.301	0.100
256.500	-15.720	0.100
256.600	-6.864	0.100
256.700	-4.564	0.100
256.800	-4.513	0.100
256.900	-23.728	0.100
257.000	-14.347	0.100
257.100	-9.496	0.100
257.200	-14.903	0.100
257.300	-10.897	0.100
257.400	-24.105	0.100
257.500	-8.872	0.100
257.600	-19.222	0.100
257.700	-8.139	0.100
257.800	-19.802	0.100
257.900	-20.506	0.100
258.000	-5.942	0.100
258.100	-14.436	0.100
258.200	-20.592	0.100
258.300	2.883	0.100
258.400	-2.564	0.100
258.500	-23.487	0.100
258.600	-3.951	0.100
258.700	-23.020	0.100
258.800	-8.823	0.100
258.900	-7.568	0.100
259.000	-13.199	0.100
259.100	-25.171	0.100
259.200	-6.559	0.100
259.300	-19.107	0.100
259.400	-2.699	0.100
259.500	-30.042	0.100
259.600	-28.755	0.100
259.700	-13.374	0.100
259.800	-9.341	0.100
259.900	-9.736	0.100
260.000	-20.394	0.100
260.100	-9.596	0.100
260.200	-13.548	0.100
260.300	-9.551	0.100
260.400	-19.007	0.100
260.500	-13.498	0.100
260.600	-25.531	0.100
260.700	-25.050	0.100
260.800	-21.107	0.100
260.900	-17.057	0.100
261.000	-23.088	0.100
261.100	-28.670	0.100
261.200	-29.086	0.100
261.300	-16.751	0.100
261.400	-17.875	0.100
261.500	-22.422	0.100
261.600	-5.594	0.100
261.700	-10.669	0.100
261.800	-25.869	0.100
261.900	-26.876	0.100
262.000	-23.377	0.100
262.100	-5.318	0.100
262.200	-14.893	0.100
262.300	-22.459	0.100
262.400	-31.060	0.100
262.500	-30.608	0.100
262.600	-2.744	0.100
262.700	-42.638	0.100
262.800	-20.467	0.100
262.900	-22.969	0.100
263.000	-14.392	0.100
263.100	-1.506	0.100
263.200	-23.908	0.100
263.300	-19.272	0.100
263.400	-4.053	0.100
263.500	-26.292	0.100
263.600	-12.314	0.100
263.700	-23.655	0.100
263.800	-29.043	0.100
263.900	-13.697	0.100
264.000	-0.193	0.100
264.100	-33.010	0.100
264.200	-6.694	0.100
264.300	-17.659	0.100
264.400	-21.660	0.100
264.500	-12.390	0.100
264.600	0.974	0.100
264.700	-17.530	0.100
264.800	-10.137	0.100
264.900	-9.280	0.100
265.000	-28.386	0.100
265.100	-26.709	0.100
265.200	-14.074	0.100
265.300	-30.713	0.100
265.400	-26.328	0.100
265.500	-10.529	0.100
265.600	-14.166	0.100
265.700	-17.387	0.100
265.800	-18.282	0.100
265.900	-15.414	0.100
266.000	-15.717	0.100
266.100	-9.201	0.100
266.200	-27.777	0.099
266.300	1.965	0.100
266.400	-25.608	0.100
266.500	-20.373	0.100
266.600	-15.611	0.100
266.700	-33.176	0.100
266.800	-11.927	0.100
266.900	-7.294	0.100
267.000	-16.560	0.100
267.100	-27.274	0.100
267.200	-9.339	0.100
267.300	-11.642	0.100
267.400	-25.338	0.100
267.500	-21.758	0.100
267.600	-22.937	0.100
267.700	-34.940	0.100
267.800	-18.787	0.100
267.900	-12.938	0.100
268.000	-22.485	0.100
268.100	-30.099	0.100
268.200	-20.644	0.100
268.300	-8.080	0.100
268.400	-18.391	0.100
268.500	-18.790	0.100
268.600	-20.536	0.100
268.700	-18.642	0.100
268.800	-19.566	0.100
268.900	-14.312	0.100
269.000	-8.593	0.100
269.100	-20.047	0.100
269.200	-21.878	0.100
269.300	-21.054	0.100
269.400	-25.357	0.100
269.500	-8.964	0.099
269.600	-8.298	0.100
269.700	-18.752	0.100
269.800	-12.749	0.100
269.900	-17.707	0.100
270.000	-29.536	0.100
270.100	-20.304	0.100
270.200	0.989	0.100
270.300	-30.051	0.100
270.400	-11.942	0.100
270.500	-14.510	0.100
270.600	-22.791	0.100
270.700	-17.883	0.100
270.800	-26.345	0.100
270.900	-32.762	0.100
271.000	-12.047	0.100
271.100	-29.550	0.100
271.200	-23.217	0.100
271.300	-27.548	0.100
271.400	-24.724	0.100
271.500	-6.611	0.100
271.600	-14.173	0.100
271.700	-21.700	0.100
271.800	-13.724	0.100
271.900	-20.057	0.100
272.000	-33.616	0.100
272.100	-34.881	0.100
272.200	-21.763	0.100
272.300	-34.507	0.100
272.400	-18.027	0.100
272.500	-13.557	0.100
272.600	-18.947	0.100
272.700	-16.305	0.100
272.800	-21.064	0.100
272.900	-22.877	0.100
273.000	-15.942	0.100
273.100	-29.458	0.100
273.200	-19.635	0.100
273.300	-2.130	0.100
273.400	-6.941	0.100
273.500	-33.735	0.100
273.600	-16.040	0.100
273.700	-27.079	0.099
273.800	-8.830	0.100
273.900	-14.274	0.100
274.000	-32.246	0.100
274.100	-10.786	0.100
274.200	-13.133	0.100
274.300	-6.429	0.100
274.400	-8.728	0.100
274.500	-17.327	0.100
274.600	-11.329	0.100
274.700	-37.453	0.100
274.800	-30.108	0.100
274.900	-15.811	0.100
275.000	-8.830	0.100
275.100	-28.448	0.099
275.200	-31.997	0.100
275.300	-1.373	0.100
275.400	-10.729	0.100
275.500	-39.827	0.100
275.600	-35.023	0.100
275.700	-22.003	0.100
275.800	-28.231	0.100
275.900	-17.825	0.100
276.000	-30.388	0.100
276.100	-26.992	0.100
276.200	-20.664	0.100
276.300	-11.356	0.100
276.400	-16.591	0.100
276.500	-12.561	0.100
276.600	-18.812	0.100
276.700	-20.767	0.100
276.800	-38.180	0.100
276.900	-19.860	0.100
277.000	-20.021	0.100
277.100	-25.236	0.100
277.200	-27.728	0.100
277.300	-21.041	0.100
277.400	0.433	0.100
277.500	-16.844	0.099
277.600	-34.043	0.100
277.700	-26.298	0.100
277.800	-20.598	0.100
277.900	-28.249	0.100
278.000	-21.190	0.100
278.100	-16.977	0.100
278.200	-32.305	0.100
278.300	-26.725	0.100
278.400	-20.879	0.100
278.500	-14.684	0.100
278.600	-32.007	0.100
278.700	-17.624	0.100
278.800	-11.007	0.100
278.900	-26.298	0.100
279.000	-28.812	0.100
279.100	-31.560	0.100
279.200	-17.960	0.100
279.300	-13.076	0.100
279.400	-28.779	0.100
279.500	-21.197	0.100
279.600	-18.879	0.100
279.700	-18.311	0.100
279.800	-14.950	0.100
279.900	-21.287	0.100
280.000	-36.374	0.100
280.100	-6.985	0.100
280.200	-11.111	0.099
280.300	-11.425	0.100
280.400	-15.301	0.100
280.500	-30.477	0.100
280.600	-32.300	0.100
280.700	-12.836	0.100
280.800	-12.546	0.100
280.900	-13.430	0.100
281.000	-19.285	0.100
281.100	-8.379	0.100
281.200	-21.577	0.100
281.300	-31.642	0.100
281.400	-27.923	0.100
281.500	-6.085	0.100
281.600	-24.040	0.100
281.700	-11.389	0.100
281.800	-13.081	0.100
281.900	-15.903	0.100
282.000	-12.724	0.100
282.100	-14.011	0.100
282.200	-22.143	0.100
282.300	-23.826	0.100
282.400	-38.391	0.100
282.500	-35.828	0.100
282.600	-14.945	0.100
282.700	-8.470	0.100
282.800	-26.208	0.100
282.900	-19.968	0.100
283.000	-28.856	0.100
283.100	-21.980	0.100
283.200	-25.116	0.100
283.300	-19.740	0.100
283.400	-29.868	0.100
283.500	-26.149	0.100
283.600	-28.718	0.100
283.700	-24.120	0.100
283.800	-23.125	0.100
283.900	-23.550	0.100
284.000	-15.275	0.100
284.100	-2.978	0.100
284.200	-18.863	0.100
284.300	-24.655	0.100
284.400	-16.089	0.100
284.500	-13.591	0.100
284.600	-17.013	0.100
284.700	-22.212	0.100
284.800	-19.609	0.100
284.900	-26.103	0.100
285.000	-9.631	0.100
285.100	-24.676	0.100
285.200	-37.964	0.100
285.300	-19.268	0.100
285.400	-19.557	0.100
285.500	-17.090	0.100
285.600	-17.854	0.100
285.700	-15.101	0.100
285.800	-30.365	0.100
285.900	-21.281	0.100
286.000	-29.692	0.100
286.100	-13.195	0.100
286.200	-10.340	0.100
286.300	-22.879	0.100
286.400	-24.811	0.100
286.500	-35.143	0.100
286.600	-15.379	0.100
286.700	-20.411	0.100
286.800	-17.115	0.100
286.900	-11.142	0.100
287.000	-5.145	0.100
287.100	-23.995	0.100
287.200	-24.167	0.100
287.300	-37.861	0.100
287.400	-31.331	0.100
287.500	-7.842	0.100
287.600	-53.386	0.100
287.700	-29.655	0.100
287.800	-15.528	0.100
287.900	-24.221	0.100
288.000	-0.106	0.100
288.100	-26.632	0.100
288.200	-29.706	0.100
288.300	-10.298	0.100
288.400	-24.176	0.100
288.500	-34.206	0.100
288.600	-13.106	0.100
288.700	-19.302	0.100
288.800	-25.816	0.100
288.900	-20.975	0.100
289.000	-28.268	0.100
289.100	-17.688	0.100
289.200	-17.586	0.100
289.300	-29.418	0.100
289.400	-20.417	0.100
289.500	-17.723	0.100
289.600	-30.433	0.100
289.700	-29.953	0.100
289.800	-16.666	0.100
289.900	-14.756	0.100
290.000	-12.479	0.100
290.100	-18.899	0.100
290.200	-21.254	0.100
290.300	-6.490	0.100
290.400	-27.596	0.100
290.500	2.454	0.100
290.600	-37.330	0.100
290.700	-7.278	0.100
290.800	-17.190	0.100
290.900	-26.136	0.100
291.000	-2.001	0.100
291.100	-19.115	0.100
291.200	-20.379	0.100
291.300	-11.524	0.100
291.400	-20.687	0.100
291.500	-23.772	0.100
291.600	-15.265	0.100
291.700	-27.316	0.100
291.800	-41.580	0.100
291.900	-26.368	0.100
292.000	-9.615	0.100
292.100	-5.116	0.100
292.200	-31.310	0.100
292.300	-31.750	0.100
292.400	-19.437	0.100
292.500	-19.590	0.100
292.600	4.742	0.100
292.700	-16.275	0.100
292.800	-21.443	0.100
292.900	-26.987	0.100
293.000	-22.308	0.100
293.100	-21.723	0.100
293.200	-12.270	0.100
293.300	-15.298	0.100
293.400	-23.204	0.100
293.500	-8.588	0.100
293.600	-21.149	0.100
293.700	-29.554	0.100
293.800	-12.948	0.100
293.900	-18.647	0.100
294.000	-23.601	0.100
294.100	-21.750	0.100
294.200	-18.487	0.100
294.300	-24.918	0.100
294.400	-24.065	0.100
294.500	-20.780	0.100
294.600	-8.127	0.100
294.700	-16.022	0.100
294.800	-18.450	0.100
294.900	-14.740	0.100
295.000	-28.643	0.100
295.100	-18.883	0.100
295.200	-9.455	0.100
295.300	-17.152	0.100
295.400	-15.926	0.100
295.500	-30.405	0.100
295.600	-21.109	0.100
295.700	-30.586	0.100
295.800	-29.595	0.100
295.900	-25.800	0.100
296.000	-26.626	0.100
296.100	-5.189	0.100
296.200	-25.199	0.100
296.300	-20.690	0.100
296.400	-24.666	0.100
296.500	-28.814	0.100
296.600	-12.749	0.100
296.700	-22.457	0.100
296.800	-32.110	0.100
296.900	-18.319	0.100
297.000	-22.088	0.100
297.100	-25.126	0.100
297.200	-11.108	0.100
297.300	-13.130	0.100
297.400	-19.509	0.100
297.500	-30.918	0.100
297.600	-19.219	0.100
297.700	-16.508	0.100
297.800	-16.554	0.100
297.900	-17.240	0.100
298.000	-2.077	0.100
298.100	-24.118	0.100
298.200	-19.692	0.100
298.300	-27.895	0.100
298.400	-13.817	0.100
298.500	-19.248	0.100
298.600	-19.347	0.100
298.700	-24.557	0.100
298.800	-36.646	0.100
298.900	-15.848	0.100
299.000	-27.705	0.100
299.100	-11.993	0.100
299.200	-10.477	0.100
299.300	-25.278	0.100
299.400	-25.239	0.100
299.500	-22.203	0.100
299.600	-3.595	0.100
299.700	-14.612	0.100
299.800	-23.036	0.100
299.900	-27.830	0.100
300.000	-32.140	0.100
300.100	-19.313	0.100
300.200	-10.853	0.100
300.300	-26.532	0.100
300.400	-16.025	0.100
300.500	-18.231	0.100
300.600	-23.916	0.100
300.700	-27.053	0.100
300.800	-10.090	0.100
300.900	-28.335	0.100
301.000	-35.440	0.100
301.100	-13.011	0.100
301.200	-30.802	0.100
301.300	-31.185	0.100
301.400	-16.456	0.100
301.500	-13.704	0.100
301.600	-35.630	0.100
301.700	-17.159	0.100
301.800	-23.575	0.100
301.900	-5.543	0.100
302.000	-1.064	0.100
302.100	-25.845	0.100
302.200	-10.609	0.100
302.300	-28.135	0.100
302.400	-23.852	0.100
302.500	-27.404	0.100
302.600	-23.428	0.100
302.700	-4.552	0.100
302.800	-13.168	0.100
302.900	-20.486	0.100
303.000	-8.437	0.100
303.100	-15.031	0.100
303.200	-21.174	0.100
303.300	-17.385	0.100
303.400	-24.213	0.100
303.500	-17.183	0.100
303.600	-30.248	0.100
303.700	-6.347	0.100
303.800	-22.707	0.100
303.900	-21.925	0.100
304.000	-3.547	0.100
304.100	-29.052	0.100
304.200	-16.835	0.100
304.300	-17.257	0.100
304.400	-25.891	0.100
304.500	-11.276	0.100
304.600	-13.422	0.100
304.700	-6.642	0.100
304.800	-10.764	0.100
304.900	-20.965	0.100
305.000	-13.133	0.100
305.100	-21.986	0.100
305.200	-8.116	0.100
305.300	-26.131	0.100
305.400	-26.316	0.100
305.500	-16.715	0.100
305.600	-29.040	0.100
305.700	-30.997	0.100
305.800	-15.363	0.100
305.900	-1.672	0.100
306.000	-31.504	0.100
306.100	-12.735	0.100
306.200	-15.202	0.100
306.300	-23.669	0.100
306.400	-24.340	0.100
306.500	-12.452	0.100
306.600	-27.266	0.100
306.700	-15.022	0.100
306.800	-23.684	0.100
306.900	-8.349	0.100
307.000	-15.546	0.100
307.100	-15.380	0.100
307.200	-8.281	0.100
307.300	-33.330	0.100
307.400	-15.695	0.100
307.500	-5.467	0.100
307.600	-17.676	0.100
307.700	-19.720	0.100
307.800	-14.691	0.100
307.900	-27.993	0.100
308.000	-7.972	0.100
308.100	-24.498	0.100
308.200	-15.754	0.100
308.300	-21.719	0.100
308.400	-34.760	0.100
308.500	-8.351	0.100
308.600	-15.330	0.100
308.700	-15.174	0.100
308.800	-20.682	0.100
308.900	-41.509	0.100
309.000	-8.301	0.100
309.100	-11.968	0.100
309.200	-27.708	0.100
309.300	-6.855	0.100
309.400	-28.111	0.100
309.500	-15.675	0.100
309.600	-3.682	0.100
309.700	-34.467	0.100
309.800	-10.722	0.100
309.900	-19.000	0.100
310.000	-17.229	0.100
310.100	-24.986	0.100
310.200	-9.341	0.100
310.300	-9.728	0.100
310.400	-12.498	0.100
310.500	-2.455	0.100
310.600	-25.530	0.100
310.700	-23.477	0.100
310.800	-17.193	0.100
310.900	-6.088	0.100
311.000	-4.436	0.100
311.100	-3.933	0.100
311.200	-30.769	0.100
311.300	-28.455	0.100
311.400	-21.245	0.100
311.500	-17.463	0.100
311.600	7.939	0.100
311.700	-24.244	0.100
311.800	-30.279	0.100
311.900	-7.595	0.100
312.000	-8.706	0.100
312.100	-10.894	0.100
312.200	-33.526	0.100
312.300	-12.151	0.100
312.400	-10.131	0.100
312.500	-10.017	0.100
312.600	-45.569	0.100
312.700	-23.446	0.100
312.800	-41.002	0.100
312.900	-8.374	0.100
313.000	-26.062	0.100
313.100	-21.219	0.100
313.200	-28.332	0.100
313.300	-6.462	0.100
313.400	-22.941	0.100
313.500	-21.651	0.100
313.600	-31.853	0.100
313.700	9.396	0.100
313.800	-11.150	0.100
313.900	-26.389	0.100
314.000	-16.604	0.100
314.100	-18.973	0.100
314.200	-22.049	0.100
314.300	-28.392	0.100
314.400	-13.010	0.100
314.500	-12.282	0.100
314.600	-11.183	0.100
314.700	-21.651	0.100
314.800	-32.115	0.100
314.900	-17.436	0.100
315.000	-10.930	0.100
315.100	-15.790	0.100
315.200	-23.254	0.100
315.300	-24.729	0.100
315.400	-20.777	0.100
315.500	-33.308	0.100
315.600	-17.182	0.100
315.700	-8.507	0.100
315.800	-17.313	0.100
315.900	-14.533	0.100
316.000	-18.314	0.100
316.100	-33.245	0.100
316.200	-12.368	0.100
316.300	-0.415	0.100
316.400	-12.377	0.100
316.500	-6.102	0.100
316.600	-21.390	0.100
316.700	-28.970	0.100
316.800	-32.665	0.100
316.900	-33.750	0.100
317.000	-10.381	0.100
317.100	-13.294	0.100
317.200	-16.245	0.100
317.300	3.062	0.100
317.400	-26.310	0.100
317.500	-26.613	0.100
317.600	-14.108	0.100
317.700	-18.070	0.100
317.800	-18.344	0.100
317.900	-20.888	0.100
318.000	-15.386	0.100
318.100	-26.287	0.100
318.200	-7.538	0.100
318.300	-24.606	0.100
318.400	-28.095	0.100
318.500	-9.686	0.100
318.600	-22.002	0.100
318.700	3.632	0.100
318.800	-20.327	0.100
318.900	-31.126	0.100
319.000	-23.996	0.100
319.100	-23.723	0.100
319.200	-26.268	0.100
319.300	-10.245	0.100
319.400	-18.571	0.100
319.500	-18.210	0.100
319.600	-26.065	0.100
319.700	-16.510	0.100
319.800	-24.589	0.100
319.900	-11.602	0.100
320.000	-19.660	0.100
320.100	-9.003	0.100
320.200	-1.447	0.100
320.300	-15.232	0.100
320.400	-30.220	0.100
320.500	-8.917	0.100
320.600	-3.891	0.100
320.700	-33.450	0.100
320.800	-13.344	0.100
320.900	-18.885	0.100
321.000	-1.927	0.100
321.100	-27.695	0.100
321.200	-8.015	0.100
321.300	-7.438	0.100
321.400	-13.990	0.100
321.500	-11.621	0.100
321.600	-20.161	0.100
321.700	-7.252	0.100
321.800	-26.797	0.100
321.900	-17.840	0.100
322.000	-13.553	0.100
322.100	-15.652	0.100
322.200	-20.633	0.100
322.300	-26.950	0.100
322.400	-11.953	0.100
322.500	-16.292	0.100
322.600	-14.869	0.100
322.700	-20.286	0.100
322.800	-15.412	0.100
322.900	-7.100	0.100
323.000	-26.950	0.100
323.100	-25.651	0.100
323.200	-0.578	0.100
323.300	-31.367	0.100
323.400	-11.305	0.100
323.500	-23.598	0.100
323.600	-14.446	0.100
323.700	-29.097	0.100
323.800	-21.618	0.100
323.900	-21.722	0.100
324.000	-33.112	0.100
324.100	-19.633	0.100
324.200	-8.651	0.100
324.300	-9.205	0.100
324.400	-18.284	0.100
324.500	-23.807	0.100
324.600	-10.509	0.100
324.700	1.881	0.100
324.800	-12.804	0.100
324.900	-15.605	0.100
325.000	-20.435	0.100
325.100	-24.298	0.100
325.200	-21.482	0.100
325.300	-11.610	0.100
325.400	-23.520	0.100
325.500	-24.335	0.100
325.600	-15.450	0.100
325.700	-28.254	0.100
325.800	-15.818	0.100
325.900	-29.582	0.100
326.000	-10.483	0.100
326.100	-16.220	0.100
326.200	-20.725	0.100
326.300	-15.800	0.100
326.400	-18.616	0.100
326.500	-25.322	0.100
326.600	-10.017	0.100
326.700	-29.114	0.100
326.800	-13.872	0.100
326.900	-10.867	0.100
327.000	-14.114	0.100
327.100	-19.057	0.100
327.200	-8.677	0.100
327.300	-20.695	0.100
327.400	-19.374	0.100
327.500	-27.152	0.100
327.600	-27.656	0.100
327.700	-12.935	0.100
327.800	-40.365	0.100
327.900	-21.111	0.100
328.000	-14.160	0.100
328.100	-20.353	0.100
328.200	-23.908	0.100
328.300	-12.301	0.100
328.400	-15.348	0.100
328.500	-7.255	0.100
328.600	-29.283	0.100
328.700	-13.877	0.100
328.800	-8.263	0.100
328.900	-26.872	0.100
329.000	-12.655	0.100
329.100	-5.529	0.100
329.200	-15.087	0.100
329.300	-30.711	0.100
329.400	-14.949	0.100
329.500	-10.250	0.100
329.600	-19.385	0.100
329.700	-29.076	0.100
329.800	-13.280	0.100
329.900	-19.756	0.100
330.000	6.808	0.100
330.100	14.020	0.100
330.200	14.463	0.100
330.300	-3.458	0.100
330.400	27.181	0.100
330.500	16.772	0.100
330.600	11.688	0.100
330.700	23.020	0.100
330.800	14.171	0.100
330.900	18.535	0.100
331.000	21.162	0.100
331.100	22.456	0.100
331.200	19.970	0.100
331.300	22.005	0.100
331.400	20.833	0.100
331.500	12.892	0.100
331.600	21.188	0.100
331.700	34.644	0.100
331.800	24.618	0.100
331.900	20.872	0.100
332.000	11.840	0.100
332.100	12.335	0.100
332.200	27.637	0.100
332.300	5.526	0.100
332.400	26.672	0.100
332.500	17.538	0.100
332.600	7.653	0.100
332.700	-3.544	0.100
332.800	20.614	0.100
332.900	7.604	0.100
333.000	12.460	0.100
333.100	16.110	0.100
333.200	15.906	0.100
333.300	28.317	0.100
333.400	14.340	0.100
333.500	4.032	0.100
333.600	-4.359	0.100
333.700	9.315	0.100
333.800	7.602	0.100
333.900	23.480	0.100
334.000	10.915	0.100
334.100	11.025	0.100
334.200	12.536	0.100
334.300	39.635	0.100
334.400	2.969	0.100
334.500	0.999	0.100
334.600	0.328	0.100
334.700	18.979	0.100
334.800	10.176	0.100
334.900	8.818	0.100
335.000	3.357	0.100
335.100	-12.583	0.100
335.200	10.509	0.100
335.300	33.110	0.100
335.400	13.457	0.100
335.500	5.340	0.100
335.600	7.726	0.100
335.700	5.504	0.100
335.800	5.239	0.100
335.900	34.454	0.100
336.000	6.330	0.100
336.100	0.872	0.100
336.200	24.046	0.100
336.300	15.660	0.100
336.400	23.177	0.100
336.500	17.564	0.100
336.600	6.488	0.100
336.700	21.697	0.100
336.800	7.173	0.100
336.900	15.798	0.100
337.000	2.373	0.100
337.100	0.336	0.100
337.200	13.934	0.100
337.300	24.713	0.100
337.400	27.716	0.100
337.500	9.911	0.100
337.600	25.331	0.100
337.700	5.779	0.100
337.800	7.505	0.100
337.900	30.595	0.100
338.000	30.251	0.100
338.100	11.460	0.100
338.200	15.990	0.100
338.300	22.167	0.100
338.400	14.808	0.100
338.500	10.154	0.100
338.600	15.057	0.100
338.700	14.500	0.100
338.800	13.037	0.100
338.900	31.959	0.100
339.000	17.722	0.100
339.100	22.255	0.100
339.200	17.939	0.100
339.300	20.902	0.100
339.400	25.185	0.100
339.500	28.056	0.100
339.600	8.194	0.100
339.700	23.334	0.100
339.800	28.595	0.100
339.900	30.236	0.100
340.000	18.058	0.100
340.100	27.236	0.100
340.200	8.327	0.100
340.300	24.363	0.100
340.400	25.343	0.100
340.500	27.497	0.100
340.600	25.327	0.100
340.700	40.063	0.100
340.800	17.747	0.100
340.900	17.351	0.100
341.000	34.025	0.100
341.100	32.667	0.100
341.200	31.650	0.100
341.300	28.653	0.100
341.400	38.406	0.100
341.500	23.433	0.100
341.600	19.745	0.100
341.700	37.239	0.100
341.800	41.009	0.100
341.900	25.861	0.100
342.000	33.911	0.100
342.100	39.815	0.100
342.200	36.870	0.100
342.300	26.661	0.100
342.400	27.306	0.100
342.500	9.280	0.100
342.600	43.369	0.100
342.700	37.402	0.100
342.800	14.587	0.100
342.900	60.931	0.100
343.000	34.929	0.100
343.100	28.000	0.100
343.200	19.597	0.100
343.300	10.538	0.100
343.400	39.792	0.100
343.500	46.589	0.100
343.600	30.871	0.100
343.700	33.773	0.100
343.800	33.675	0.100
343.900	50.525	0.100
344.000	44.834	0.100
344.100	21.989	0.100
344.200	23.908	0.100
344.300	25.242	0.100
344.400	31.214	0.100
344.500	44.062	0.100
344.600	21.669	0.100
344.700	42.141	0.100
344.800	27.191	0.100
344.900	20.040	0.100
345.000	41.467	0.100
345.100	44.554	0.100
345.200	32.436	0.100
345.300	36.105	0.100
345.400	45.637	0.100
345.500	51.635	0.100
345.600	36.876	0.100
345.700	32.941	0.100
345.800	58.953	0.100
345.900	36.967	0.100
346.000	36.168	0.100
346.100	29.060	0.100
346.200	42.989	0.100
346.300	44.138	0.100
346.400	53.084	0.100
346.500	34.216	0.100
346.600	25.150	0.100
346.700	36.501	0.100
346.800	42.212	0.100
346.900	32.042	0.100
347.000	41.827	0.100
347.100	48.275	0.100
347.200	33.761	0.100
347.300	40.225	0.100
347.400	53.314	0.100
347.500	30.464	0.100
347.600	45.503	0.100
347.700	40.206	0.100
347.800	48.083	0.100
347.900	40.987	0.100
348.000	37.474	0.100
348.100	40.180	0.100
348.200	47.800	0.100
348.300	28.077	0.100
348.400	43.343	0.100
348.500	49.045	0.100
348.600	48.359	0.100
348.700	46.849	0.100
348.800	37.991	0.100
348.900	28.413	0.100
349.000	39.437	0.100
349.100	36.458	0.100
349.200	43.222	0.100
349.300	53.852	0.100
349.400	46.499	0.100
349.500	48.420	0.100
349.600	42.643	0.100
349.700	55.041	0.100
349.800	42.521	0.100
349.900	38.433	0.100
350.000	43.180	0.100
350.100	38.032	0.100
350.200	42.902	0.100
350.300	26.288	0.100
350.400	49.082	0.100
350.500	37.906	0.100
350.600	60.931	0.100
350.700	47.063	0.100
350.800	35.281	0.100
350.900	43.463	0.100
351.000	42.698	0.100
351.100	28.945	0.100
351.200	46.754	0.100
351.300	42.695	0.100
351.400	48.783	0.100
351.500	36.746	0.100
351.600	48.048	0.100
351.700	31.274	0.100
351.800	43.297	0.100
351.900	41.326	0.100
352.000	41.448	0.100
352.100	49.259	0.100
352.200	47.852	0.100
352.300	47.584	0.100
352.400	35.850	0.100
352.500	45.675	0.100
352.600	36.205	0.100
352.700	24.535	0.100
352.800	32.306	0.100
352.900	50.794	0.100
353.000	39.801	0.100
353.100	38.972	0.100
353.200	51.109	0.100
353.300	49.834	0.100
353.400	50.043	0.100
353.500	41.102	0.100
353.600	35.185	0.100
353.700	64.511	0.100
353.800	50.153	0.100
353.900	42.228	0.100
354.000	54.934	0.100
354.100	50.640	0.100
354.200	26.845	0.100
354.300	45.709	0.100
354.400	36.201	0.100
354.500	41.604	0.100
354.600	47.057	0.100
354.700	27.474	0.100
354.800	22.634	0.100
354.900	42.572	0.100
355.000	53.612	0.100
355.100	39.775	0.100
355.200	42.833	0.100
355.300	48.481	0.100
355.400	35.652	0.100
355.500	44.722	0.100
355.600	50.479	0.100
355.700	32.030	0.100
355.800	47.318	0.100
355.900	40.823	0.100
356.000	31.230	0.100
356.100	28.115	0.100
356.200	48.497	0.100
356.300	37.972	0.100
356.400	50.850	0.100
356.500	52.336	0.100
356.600	38.236	0.100
356.700	59.959	0.100
356.800	36.290	0.100
356.900	57.294	0.100
357.000	47.839	0.100
357.100	42.877	0.100
357.200	34.807	0.100
357.300	28.772	0.100
357.400	30.703	0.100
357.500	40.458	0.100
357.600	25.912	0.100
357.700	46.797	0.100
357.800	51.558	0.100
357.900	46.762	0.100
358.000	46.865	0.100
358.100	41.256	0.100
358.200	44.111	0.100
358.300	48.258	0.100
358.400	45.189	0.100
358.500	42.766	0.100
358.600	40.393	0.100
358.700	50.412	0.100
358.800	57.298	0.100
358.900	38.254	0.100
359.000	21.347	0.100
359.100	41.556	0.100
359.200	51.726	0.100
359.300	40.895	0.100
359.400	51.570	0.100
359.500	39.491	0.100
359.600	42.482	0.100
359.700	37.675	0.100
359.800	37.433	0.100
359.900	33.044	0.100
360.000	46.130	0.100
360.100	48.797	0.100
360.200	46.332	0.100
360.300	33.769	0.100
360.400	59.464	0.100
360.500	40.050	0.100
360.600	52.477	0.100
360.700	55.343	0.100
360.800	36.856	0.100
360.900	44.829	0.100
361.000	40.207	0.100
361.100	42.317	0.100
361.200	41.935	0.100
361.300	42.965	0.100
361.400	47.654	0.100
361.500	36.504	0.100
361.600	44.993	0.100
361.700	38.327	0.100
361.800	48.662	0.100
361.900	42.526	0.100
362.000	29.241	0.100
362.100	52.812	0.100
362.200	51.901	0.100
362.300	44.602	0.100
362.400	47.507	0.100
362.500	41.247	0.100
362.600	45.332	0.100
362.700	54.600	0.100
362.800	55.490	0.100
362.900	52.058	0.100
363.000	41.236	0.100
363.100	50.859	0.100
363.200	40.414	0.100
363.300	44.663	0.100
363.400	31.085	0.100
363.500	51.175	0.100
363.600	49.790	0.100
363.700	34.730	0.100
363.800	38.502	0.100
363.900	66.441	0.100
364.000	44.435	0.100
364.100	27.383	0.100
364.200	35.630	0.100
364.300	58.472	0.100
364.400	46.473	0.100
364.500	48.132	0.100
364.600	53.720	0.100
364.700	39.858	0.100
364.800	50.008	0.100
364.900	53.006	0.100
365.000	45.380	0.100
365.100	43.504	0.100
365.200	36.055	0.100
365.300	53.748	0.100
365.400	67.285	0.100
365.500	48.794	0.100
365.600	45.584	0.100
365.700	63.442	0.100
365.800	25.735	0.100
365.900	45.445	0.100
366.000	62.133	0.100
366.100	40.373	0.100
366.200	59.139	0.100
366.300	46.730	0.100
366.400	44.321	0.100
366.500	35.353	0.100
366.600	44.666	0.100
366.700	57.941	0.100
366.800	55.808	0.100
366.900	53.865	0.100
367.000	37.698	0.100
367.100	41.749	0.100
367.200	43.686	0.100
367.300	46.401	0.100
367.400	50.530	0.100
367.500	35.511	0.100
367.600	45.320	0.100
367.700	64.252	0.100
367.800	43.049	0.100
367.900	53.710	0.100
368.000	45.272	0.100
368.100	39.292	0.100
368.200	62.985	0.100
368.300	57.063	0.100
368.400	50.694	0.100
368.500	57.223	0.100
368.600	51.224	0.100
368.700	49.314	0.100
368.800	48.080	0.100
368.900	51.226	0.100
369.000	43.093	0.100
369.100	49.772	0.100
369.200	65.193	0.100
369.300	31.295	0.100
369.400	47.743	0.100
369.500	62.979	0.100
369.600	35.889	0.100
369.700	30.396	0.100
369.800	58.629	0.100
369.900	59.853	0.100
370.000	46.005	0.100
370.100	37.158	0.100
370.200	42.913	0.100
370.300	57.643	0.100
370.400	35.434	0.100
370.500	42.914	0.100
370.600	38.550	0.100
370.700	63.385	0.100
370.800	53.364	0.100
370.900	41.211	0.100
371.000	53.396	0.100
371.100	52.433	0.100
371.200	55.216	0.100
371.300	48.593	0.100
371.400	50.997	0.100
371.500	60.570	0.100
371.600	40.958	0.100
371.700	56.827	0.100
371.800	35.246	0.100
371.900	58.140	0.100
372.000	61.949	0.100
372.100	45.127	0.100
372.200	51.358	0.100
372.300	50.387	0.100
372.400	58.665	0.100
372.500	54.804	0.100
372.600	45.649	0.100
372.700	44.981	0.100
372.800	42.490	0.100
372.900	54.899	0.100
373.000	61.997	0.100
373.100	48.825	0.100
373.200	60.071	0.100
373.300	38.635	0.100
373.400	66.441	0.100
373.500	31.703	0.100
373.600	42.158	0.100
373.700	60.608	0.100
373.800	43.335	0.100
373.900	48.869	0.100
374.000	61.748	0.100
374.100	51.054	0.100
374.200	48.062	0.100
374.300	47.663	0.100
374.400	58.527	0.100
374.500	39.553	0.100
374.600	49.796	0.100
374.700	64.719	0.100
374.800	48.392	0.100
374.900	47.430	0.100
375.000	57.499	0.100
375.100	53.573	0.100
375.200	44.134	0.100
375.300	51.053	0.100
375.400	48.405	0.100
375.500	55.759	0.100
375.600	45.573	0.100
375.700	57.207	0.100
375.800	36.511	0.100
375.900	57.383	0.100
376.000	51.742	0.100
376.100	46.068	0.100
376.200	57.215	0.100
376.300	55.113	0.100
376.400	42.418	0.100
376.500	50.257	0.100
376.600	59.189	0.100
376.700	39.328	0.100
376.800	55.833	0.100
376.900	57.936	0.100
377.000	50.637	0.100
377.100	46.606	0.100
377.200	45.319	0.100
377.300	50.437	0.100
377.400	56.893	0.100
377.500	55.613	0.100
377.600	60.202	0.100
377.700	49.604	0.100
377.800	50.384	0.100
377.900	41.231	0.100
378.000	46.884	0.100
378.100	54.244	0.100
378.200	46.714	0.100
378.300	45.643	0.100
378.400	56.348	0.100
378.500	65.128	0.100
378.600	53.594	0.100
378.700	55.242	0.100
378.800	53.359	0.100
378.900	62.377	0.100
379.000	61.362	0.100
379.100	44.132	0.100
379.200	60.750	0.099
379.300	34.911	0.100
379.400	53.599	0.100
379.500	48.419	0.100
379.600	51.345	0.100
379.700	40.284	0.100
379.800	59.684	0.100
379.900	47.307	0.100
380.000	48.553	0.100
380.100	61.610	0.100
380.200	52.702	0.100
380.300	51.508	0.100
380.400	51.489	0.100
380.500	55.851	0.100
380.600	63.393	0.100
380.700	33.852	0.100
380.800	66.998	0.100
380.900	52.800	0.100
381.000	38.136	0.100
381.100	56.739	0.100
381.200	47.422	0.100
381.300	44.928	0.100
381.400	60.439	0.100
381.500	56.732	0.100
381.600	45.732	0.100
381.700	61.303	0.100
381.800	45.708	0.100
381.900	53.001	0.100
382.000	55.296	0.100
382.100	44.852	0.100
382.200	48.759	0.100
382.300	52.382	0.100
382.400	51.308	0.100
382.500	51.015	0.100
382.600	77.374	0.100
382.700	49.005	0.100
382.800	46.916	0.100
382.900	54.051	0.100
383.000	47.720	0.100
383.100	47.366	0.100
383.200	65.770	0.100
383.300	56.792	0.100
383.400	44.604	0.100
383.500	64.749	0.100
383.600	45.125	0.100
383.700	47.858	0.100
383.800	40.342	0.100
383.900	42.263	0.100
384.000	53.195	0.100
384.100	58.948	0.100
384.200	50.705	0.100
384.300	57.219	0.100
384.400	53.404	0.099
384.500	65.997	0.100
384.600	42.501	0.100
384.700	61.707	0.100
384.800	54.816	0.100
384.900	46.556	0.099
385.000	50.860	0.099
385.100	53.747	0.100
385.200	30.769	0.100
385.300	64.654	0.100
385.400	63.689	0.100
385.500	49.738	0.100
385.600	50.403	0.100
385.700	50.998	0.100
385.800	44.926	0.100
385.900	62.141	0.100
386.000	47.429	0.100
386.100	66.749	0.100
386.200	46.503	0.100
386.300	71.919	0.100
386.400	48.837	0.100
386.500	39.569	0.100
386.600	58.681	0.100
386.700	64.729	0.100
386.800	60.585	0.100
386.900	65.982	0.100
387.000	48.302	0.100
387.100	41.454	0.100
387.200	58.721	0.100
387.300	58.014	0.100
387.400	49.545	0.100
387.500	59.930	0.100
387.600	58.213	0.100
387.700	55.153	0.100
387.800	47.377	0.100
387.900	56.086	0.100
388.000	48.070	0.100
388.100	51.244	0.100
388.200	49.394	0.100
388.300	52.577	0.100
388.400	65.436	0.100
388.500	46.821	0.100
388.600	47.388	0.099
388.700	42.766	0.100
388.800	60.585	0.100
388.900	61.081	0.100
389.000	50.515	0.100
389.100	63.033	0.100
389.200	43.337	0.100
389.300	67.933	0.100
389.400	67.125	0.100
389.500	45.930	0.100
389.600	52.509	0.100
389.700	37.901	0.100
389.800	58.111	0.100
389.900	39.723	0.100
390.000	39.067	0.100
390.100	34.383	0.100
390.200	26.229	0.100
390.300	38.552	0.100
390.400	29.492	0.100
390.500	14.558	0.100
390.600	27.434	0.100
390.700	24.663	0.100
390.800	25.660	0.100
390.900	18.319	0.100
391.000	15.918	0.100
391.100	8.797	0.100
391.200	1.926	0.100
391.300	23.626	0.100
391.400	-0.168	0.100
391.500	-8.316	0.100
391.600	1.593	0.100
391.700	-14.730	0.100
391.800	-4.190	0.100
391.900	-6.986	0.100
392.000	-0.156	0.100
392.100	-0.283	0.100
392.200	-0.662	0.100
392.300	12.577	0.100
392.400	-8.136	0.099
392.500	-2.680	0.100
392.600	-23.092	0.100
392.700	2.667	0.100
392.800	1.269	0.100
392.900	-8.865	0.100
393.000	-24.270	0.100
393.100	-18.802	0.100
393.200	-6.952	0.100
393.300	-8.396	0.100
393.400	-18.647	0.100
393.500	-25.653	0.100
393.600	-7.429	0.100
393.700	-2.104	0.100
393.800	4.051	0.100
393.900	-11.199	0.100
394.000	-6.111	0.100
394.100	-7.535	0.100
394.200	-11.309	0.100
394.300	2.097	0.100
394.400	-13.409	0.100
394.500	-0.991	0.100
394.600	-4.705	0.100
394.700	-17.310	0.100
394.800	-8.615	0.100
394.900	3.425	0.100
395.000	-8.258	0.100
395.100	-19.360	0.100
395.200	-14.682	0.100
395.300	-18.723	0.100
395.400	-6.707	0.100
395.500	-10.405	0.100
395.600	-2.669	0.100
395.700	-9.595	0.100
395.800	-11.715	0.100
395.900	-9.582	0.100
396.000	-12.008	0.100
396.100	-24.216	0.099
396.200	-16.106	0.100
396.300	12.067	0.099
396.400	-11.166	0.099
396.500	-16.265	0.100
396.600	2.317	0.100
396.700	-4.201	0.099
396.800	-9.012	0.100
396.900	-2.150	0.100
397.000	-8.684	0.100
397.100	-8.539	0.100
397.200	-9.358	0.100
397.300	-12.112	0.100
397.400	-10.094	0.100
397.500	-8.146	0.100
397.600	0.144	0.100
397.700	-9.279	0.100
397.800	-11.504	0.099
397.900	-1.703	0.100
398.000	-19.382	0.099
398.100	-22.980	0.100
398.200	-11.448	0.099
398.300	-18.648	0.099
398.400	0.223	0.099
398.500	-3.596	0.100
398.600	4.080	0.100
398.700	-13.865	0.100
398.800	-16.970	0.100
398.900	-22.364	0.100
399.000	-3.389	0.100
399.100	-19.847	0.100
399.200	-8.437	0.100
399.300	-21.546	0.100
399.400	-5.179	0.099
399.500	7.025	0.100
399.600	-15.604	0.099
399.700	-9.857	0.100
399.800	-7.854	0.100
399.900	-13.057	0.100
400.000	-5.935	0.100
400.100	-21.321	0.099
400.200	-8.584	0.099
400.300	-20.805	0.100
400.400	1.494	0.100
400.500	-15.399	0.100
400.600	-4.000	0.100
400.700	-17.554	0.100
400.800	-29.132	0.100
400.900	-21.195	0.099
401.000	1.837	0.100
401.100	-6.451	0.100
401.200	-24.297	0.099
401.300	-22.727	0.100
401.400	2.316	0.099
401.500	-26.034	0.100
401.600	-18.485	0.099
401.700	-9.934	0.099
401.800	2.133	0.099
401.900	-15.001	0.100
402.000	-3.710	0.100
402.100	-8.634	0.100
402.200	-17.950	0.099
402.300	-13.515	0.100
402.400	-2.647	0.100
402.500	-43.571	0.100
402.600	-10.498	0.099
402.700	-11.247	0.100
402.800	2.323	0.100
402.900	-17.865	0.099
403.000	-21.416	0.099
403.100	-23.806	0.100
403.200	-15.833	0.100
403.300	-1.605	0.099
403.400	-21.962	0.100
403.500	-10.592	0.099
403.600	-0.843	0.100
403.700	-12.832	0.100
403.800	-16.816	0.100
403.900	-12.412	0.100
404.000	-14.205	0.100
404.100	-12.722	0.099
404.200	-6.197	0.100
404.300	-22.642	0.100
404.400	-5.329	0.100
404.500	-3.318	0.100
404.600	-17.030	0.100
404.700	-17.413	0.099
404.800	-13.826	0.100
404.900	-6.903	0.100
405.000	-20.786	0.100
405.100	4.359	0.100
405.200	-13.209	0.100
405.300	-13.595	0.100
405.400	-3.295	0.100
405.500	-14.566	0.100
405.600	-5.934	0.100
405.700	-19.484	0.100
405.800	-16.255	0.100
405.900	-14.015	0.100
406.000	4.960	0.100
406.100	-2.640	0.100
406.200	-27.101	0.100
406.300	-16.095	0.100
406.400	-25.139	0.099
406.500	-23.995	0.100
406.600	-21.515	0.100
406.700	5.160	0.100
406.800	-14.313	0.100
406.900	-25.017	0.100
407.000	-29.953	0.099
407.100	-11.144	0.099
407.200	-24.839	0.100
407.300	-19.096	0.099
407.400	-9.303	0.099
407.500	-17.395	0.100
407.600	-33.975	0.099
407.700	-18.760	0.100
407.800	-20.233	0.100
407.900	-22.236	0.099
408.000	-22.796	0.099
408.100	-24.720	0.099
408.200	-2.255	0.099
408.300	-7.469	0.100
408.400	-15.201	0.100
408.500	-1.632	0.100
408.600	-13.432	0.100
408.700	-21.406	0.100
408.800	-30.265	0.100
408.900	-8.318	0.100
409.000	-41.951	0.100
409.100	-12.052	0.100
409.200	-22.603	0.100
409.300	-21.985	0.100
409.400	1.236	0.100
409.500	-25.309	0.099
409.600	-5.854	0.100
409.700	-30.711	0.100
409.800	-13.188	0.100
409.900	-11.127	0.100
410.000	-19.230	0.099
410.100	-37.936	0.100
410.200	0.162	0.099
410.300	-10.316	0.100
410.400	-31.892	0.099
410.500	-4.506	0.100
410.600	-19.970	0.099
410.700	-10.469	0.100
410.800	-27.548	0.099
410.900	-13.139	0.100
411.000	-21.789	0.100
411.100	-22.703	0.100
411.200	-13.940	0.100
411.300	-9.642	0.100
411.400	-20.956	0.100
411.500	-29.365	0.100
411.600	-34.715	0.100
411.700	-8.171	0.100
411.800	-20.417	0.099
411.900	-26.833	0.099
412.000	-12.091	0.100
412.100	-18.386	0.099
412.200	-14.458	0.100
412.300	-29.469	0.100
412.400	-9.700	0.100
412.500	-16.824	0.100
412.600	-13.652	0.100
412.700	-23.304	0.100
412.800	-13.856	0.100
412.900	-2.534	0.099
413.000	-19.902	0.100
413.100	-22.372	0.100
413.200	-4.409	0.100
413.300	-4.734	0.100
413.400	-6.740	0.100
413.500	-23.821	0.100
413.600	-18.920	0.100
413.700	-22.643	0.100
413.800	-25.860	0.100
413.900	-28.190	0.100
414.000	-19.496	0.100
414.100	-5.983	0.100
414.200	-21.754	0.100
414.300	-18.893	0.100
414.400	-36.710	0.100
414.500	-24.131	0.100
414.600	-7.615	0.100
414.700	-16.331	0.099
414.800	-25.797	0.100
414.900	-1.263	0.100
415.000	-18.244	0.100
415.100	-27.716	0.100
415.200	-17.261	0.100
415.300	-15.924	0.100
415.400	-27.365	0.100
415.500	-9.770	0.099
415.600	-10.403	0.100
415.700	-23.921	0.100
415.800	-8.613	0.100
415.900	-20.236	0.099
416.000	-33.588	0.100
416.100	-23.079	0.100
416.200	-6.650	0.100
416.300	-28.099	0.100
416.400	-22.851	0.100
416.500	-12.180	0.100
416.600	-12.493	0.100
416.700	-27.793	0.100
416.800	-23.574	0.100
416.900	-24.973	0.100
417.000	-19.976	0.100
417.100	-22.399	0.100
417.200	-20.910	0.100
417.300	-29.806	0.099
417.400	-40.765	0.100
417.500	-29.464	0.100
417.600	-10.002	0.100
417.700	-9.607	0.100
417.800	-18.034	0.100
417.900	-14.566	0.100
418.000	-18.630	0.100
418.100	-13.933	0.100
418.200	-8.088	0.100
418.300	-25.997	0.100
418.400	-10.315	0.100
418.500	-22.770	0.100
418.600	-23.889	0.100
418.700	-20.600	0.100
418.800	-24.477	0.099
418.900	-30.698	0.100
419.000	-16.893	0.100
419.100	-7.721	0.100
419.200	-12.691	0.100
419.300	-34.328	0.100
419.400	-22.118	0.100
419.500	-26.189	0.100
419.600	-15.161	0.100
419.700	-31.098	0.099
419.800	-11.984	0.100
419.900	-4.442	0.100
420.000	-16.459	0.100
420.100	-43.280	0.100
420.200	-3.805	0.100
420.300	-29.186	0.100
420.400	-22.901	0.099
420.500	-25.350	0.100
420.600	-22.818	0.100
420.700	-21.324	0.100
420.800	-19.421	0.100
420.900	-28.966	0.100
421.000	-15.533	0.100
421.100	-41.103	0.100
421.200	-33.558	0.100
421.300	-14.197	0.100
421.400	-23.944	0.100
421.500	-12.279	0.100
421.600	-22.454	0.100
421.700	-8.084	0.100
421.800	-26.534	0.100
421.900	-19.555	0.100
422.000	-19.597	0.100
422.100	-32.464	0.100
422.200	-25.469	0.100
422.300	-15.110	0.100
422.400	-41.554	0.100
422.500	-24.663	0.100
422.600	-21.947	0.100
422.700	-27.511	0.100
422.800	-31.125	0.100
422.900	-26.923	0.100
423.000	-11.077	0.100
423.100	-12.193	0.100
423.200	-18.764	0.100
423.300	-24.105	0.099
423.400	-11.503	0.100
423.500	-23.143	0.100
423.600	-17.379	0.100
423.700	-21.343	0.100
423.800	-29.445	0.100
423.900	-36.826	0.100
424.000	-23.777	0.100
424.100	-33.324	0.100
424.200	-19.279	0.100
424.300	-20.802	0.100
424.400	-25.492	0.100
424.500	-23.460	0.100
424.600	-8.602	0.100
424.700	-28.747	0.100
424.800	-29.429	0.100
424.900	-38.887	0.100
425.000	-21.000	0.100
425.100	-5.178	0.100
425.200	-23.970	0.100
425.300	-31.102	0.100
425.400	-24.475	0.100
425.500	-21.878	0.100
425.600	-34.175	0.100
425.700	-37.204	0.100
425.800	-3.392	0.100
425.900	-20.935	0.100
426.000	-25.457	0.100
426.100	-11.079	0.100
426.200	-28.575	0.100
426.300	-26.417	0.100
426.400	-17.267	0.100
426.500	-40.557	0.100
426.600	-20.429	0.100
426.700	-40.747	0.100
426.800	-30.175	0.100
426.900	-15.747	0.100
427.000	3.127	0.100
427.100	-10.021	0.100
427.200	-28.329	0.100
427.300	-21.061	0.100
427.400	-40.850	0.100
427.500	-36.695	0.100
427.600	-13.400	0.100
427.700	-17.470	0.100
427.800	-17.363	0.100
427.900	-23.196	0.100
428.000	-11.149	0.100
428.100	-25.650	0.100
428.200	-17.155	0.100
428.300	-16.204	0.100
428.400	-28.646	0.100
428.500	-21.962	0.100
428.600	-22.193	0.100
428.700	-31.192	0.100
428.800	-22.459	0.100
428.900	-24.411	0.100
429.000	-19.694	0.100
429.100	-24.052	0.100
429.200	-19.854	0.100
429.300	-14.234	0.100
429.400	-22.272	0.100
429.500	-29.823	0.100
429.600	-37.186	0.100
429.700	-13.691	0.100
429.800	-18.739	0.100
429.900	-19.145	0.100
430.000	-25.502	0.100
430.100	-25.822	0.100
430.200	-28.052	0.100
430.300	-12.263	0.100
430.400	-13.023	0.100
430.500	-24.575	0.100
430.600	-33.451	0.100
430.700	-27.768	0.100
430.800	-13.084	0.100
430.900	-32.802	0.100
431.000	-28.581	0.100
431.100	-23.527	0.100
431.200	-19.414	0.100
431.300	-7.910	0.100
431.400	-28.296	0.100
431.500	-24.782	0.100
431.600	-22.768	0.100
431.700	-6.303	0.100
431.800	-30.219	0.100
431.900	-17.521	0.100
432.000	-17.382	0.100
432.100	-31.160	0.100
432.200	-16.403	0.100
432.300	-22.721	0.100
432.400	-32.149	0.100
432.500	-20.737	0.100
432.600	-42.723	0.100
432.700	-6.401	0.100
432.800	-30.931	0.100
432.900	-43.073	0.100
433.000	-28.791	0.100
433.100	-12.334	0.100
433.200	-7.530	0.100
433.300	-20.372	0.100
433.400	-19.671	0.100
433.500	-21.581	0.100
433.600	-28.545	0.100
433.700	-28.859	0.100
433.800	-29.842	0.100
433.900	-29.911	0.100
434.000	-35.118	0.099
434.100	-17.845	0.100
434.200	-27.966	0.100
434.300	-15.245	0.100
434.400	-6.240	0.100
434.500	-33.180	0.100
434.600	-32.266	0.100
434.700	-21.081	0.100
434.800	-9.863	0.100
434.900	-33.985	0.100
435.000	-18.818	0.100
435.100	-18.410	0.100
435.200	-14.494	0.100
435.300	-27.750	0.100
435.400	-19.983	0.100
435.500	-14.712	0.100
435.600	-23.966	0.100
435.700	-23.232	0.100
435.800	-28.219	0.100
435.900	-35.699	0.100
436.000	-16.913	0.100
436.100	-14.284	0.100
436.200	-24.367	0.100
436.300	-30.520	0.100
436.400	-21.425	0.100
436.500	-20.620	0.100
436.600	-30.036	0.100
436.700	-10.620	0.100
436.800	-18.451	0.100
436.900	-26.348	0.100
437.000	-30.630	0.099
437.100	-31.496	0.100
437.200	-2.340	0.100
437.300	-31.710	0.100
437.400	-34.276	0.100
437.500	-18.357	0.100
437.600	-44.623	0.100
437.700	-27.475	0.100
437.800	6.217	0.100
437.900	-31.262	0.100
438.000	-28.608	0.100
438.100	-12.900	0.100
438.200	-29.021	0.100
438.300	-10.889	0.100
438.400	-10.310	0.100
438.500	-26.682	0.100
438.600	-9.467	0.100
438.700	-22.634	0.100
438.800	-21.915	0.100
438.900	-20.550	0.100
439.000	-23.465	0.100
439.100	-18.916	0.100
439.200	-26.421	0.100
439.300	-13.805	0.100
439.400	-27.676	0.100
439.500	-3.041	0.100
439.600	-18.874	0.100
439.700	-42.481	0.100
439.800	-9.841	0.100
439.900	-16.468	0.100
440.000	-17.921	0.100
440.100	-26.804	0.100
440.200	-16.462	0.100
440.300	-20.595	0.100
440.400	-7.067	0.100
440.500	-23.949	0.100
440.600	-32.279	0.100
440.700	-20.279	0.100
440.800	-24.142	0.100
440.900	-24.960	0.100
441.000	-20.250	0.100
441.100	-21.182	0.100
441.200	-32.276	0.099
441.300	-37.074	0.100
441.400	-9.989	0.100
441.500	-34.457	0.099
441.600	-20.270	0.100
441.700	-9.518	0.099
441.800	-11.079	0.100
441.900	-35.195	0.100
442.000	-29.145	0.099
442.100	-2.292	0.100
442.200	-45.154	0.099
442.300	-42.990	0.100
442.400	-17.057	0.100
442.500	-13.906	0.100
442.600	-20.869	0.100
442.700	-22.010	0.100
442.800	-26.200	0.100
442.900	-35.568	0.100
443.000	-11.407	0.100
443.100	-14.681	0.100
443.200	-15.167	0.100
443.300	-29.263	0.100
443.400	-33.368	0.100
443.500	-23.739	0.099
443.600	-15.102	0.100
443.700	-17.655	0.100
443.800	-16.762	0.100
443.900	-18.873	0.100
444.000	-27.169	0.100
444.100	-22.203	0.100
444.200	-21.246	0.100
444.300	-18.919	0.100
444.400	-22.079	0.100
444.500	-9.377	0.100
444.600	-14.457	0.100
444.700	-10.941	0.100
444.800	-64.117	0.100
444.900	-29.130	0.100
445.000	-9.129	0.100
445.100	-25.842	0.100
445.200	-23.884	0.100
445.300	-12.503	0.100
445.400	-23.189	0.100
445.500	-29.411	0.100
445.600	-27.309	0.100
445.700	-33.590	0.100
445.800	-19.563	0.100
445.900	-10.035	0.100
446.000	-16.819	0.100
446.100	-18.972	0.100
446.200	-25.849	0.100
446.300	-14.536	0.100
446.400	-24.014	0.100
446.500	-20.181	0.100
446.600	-7.262	0.100
446.700	-15.081	0.100
446.800	-19.478	0.100
446.900	-21.499	0.100
447.000	-26.246	0.100
447.100	-27.010	0.100
447.200	-39.767	0.100
447.300	-7.920	0.100
447.400	-22.056	0.100
447.500	-22.370	0.100
447.600	-28.527	0.100
447.700	-10.981	0.100
447.800	-22.931	0.100
447.900	-23.695	0.100
448.000	-22.187	0.100
448.100	-31.706	0.100
448.200	-5.902	0.100
448.300	-15.310	0.100
448.400	-29.148	0.100
448.500	-19.076	0.100
448.600	-36.807	0.100
448.700	-7.562	0.100
448.800	-8.603	0.100
448.900	-30.137	0.100
449.000	-32.850	0.100
449.100	-9.694	0.100
449.200	-12.945	0.100
449.300	-30.567	0.100
449.400	-8.660	0.100
449.500	-31.189	0.100
449.600	-34.160	0.100
449.700	-25.810	0.100
449.800	-36.008	0.100
449.900	-19.306	0.100
450.000	-11.310	0.100
450.100	-33.730	0.100
450.200	-11.666	0.100
450.300	-11.064	0.100
450.400	-17.000	0.100
450.500	-20.900	0.100
450.600	-25.169	0.100
450.700	-18.960	0.099
450.800	-18.633	0.100
450.900	-28.422	0.099
451.000	-17.572	0.100
451.100	-17.072	0.100
451.200	-25.999	0.100
451.300	-12.777	0.100
451.400	-11.111	0.100
451.500	-24.435	0.100
451.600	-46.249	0.100
451.700	-17.127	0.100
451.800	-9.056	0.100
451.900	-30.588	0.100
452.000	-24.740	0.100
452.100	-32.801	0.100
452.200	-6.337	0.100
452.300	-18.321	0.100
452.400	-19.997	0.100
452.500	-29.798	0.100
452.600	-9.220	0.100
452.700	-20.283	0.100
452.800	-34.731	0.100
452.900	-14.060	0.100
453.000	-26.646	0.100
453.100	-22.916	0.100
453.200	-23.405	0.100
453.300	-20.258	0.100
453.400	-23.515	0.100
453.500	-13.891	0.100
453.600	-28.331	0.100
453.700	-21.005	0.100
453.800	-17.022	0.100
453.900	-17.375	0.100
454.000	-32.339	0.100
454.100	-23.285	0.100
454.200	-25.772	0.100
454.300	-10.844	0.100
454.400	-30.043	0.100
454.500	-27.215	0.100
454.600	-25.507	0.100
454.700	-21.157	0.100
454.800	-32.252	0.100
454.900	-17.578	0.100
455.000	-13.103	0.100
455.100	-15.083	0.099
455.200	-11.732	0.100
455.300	-25.876	0.100
455.400	-12.449	0.100
455.500	-44.995	0.100
455.600	-16.331	0.099
455.700	-12.766	0.100
455.800	-14.513	0.100
455.900	-18.945	0.100
456.000	-22.652	0.100
456.100	-20.678	0.100
456.200	-15.610	0.100
456.300	-20.853	0.100
456.400	-18.502	0.100
456.500	-26.874	0.100
456.600	-22.773	0.100
456.700	-35.970	0.100
456.800	-11.156	0.100
456.900	-21.428	0.100
457.000	-13.328	0.100
457.100	-8.359	0.099
457.200	-19.346	0.100
457.300	-21.932	0.100
457.400	-33.983	0.100
457.500	-17.938	0.100
457.600	-24.207	0.100
457.700	-32.355	0.100
457.800	-3.182	0.100
457.900	-10.102	0.100
458.000	-26.432	0.099
458.100	-15.774	0.100
458.200	-21.351	0.100
458.300	-22.852	0.099
458.400	-21.739	0.100
458.500	-10.556	0.100
458.600	-26.804	0.100
458.700	-14.034	0.100
458.800	-33.527	0.100
458.900	-27.903	0.100
459.000	-33.672	0.100
459.100	-15.995	0.100
459.200	0.157	0.100
459.300	-22.585	0.100
459.400	-26.398	0.100
459.500	-26.865	0.100
459.600	-24.856	0.100
459.700	-32.285	0.100
459.800	-25.558	0.100
459.900	-15.827	0.100
460.000	-0.275	0.100
460.100	-26.984	0.100
460.200	-20.605	0.100
460.300	-13.496	0.100
460.400	-13.174	0.100
460.500	-21.980	0.100
460.600	-14.991	0.100
460.700	-28.647	0.100
460.800	-28.222	0.100
460.900	-21.225	0.100
461.000	-10.891	0.100
461.100	-17.607	0.100
461.200	-15.809	0.100
461.300	-15.000	0.100
461.400	-10.864	0.100
461.500	-25.021	0.100
461.600	-28.174	0.100
461.700	-13.490	0.100
461.800	-34.220	0.100
461.900	-45.421	0.100
462.000	-8.035	0.100
462.100	-22.886	0.100
462.200	-22.376	0.100
462.300	-34.625	0.099
462.400	-24.844	0.100
462.500	-12.645	0.099
462.600	-45.254	0.100
462.700	-17.992	0.100
462.800	-9.537	0.100
462.900	-28.794	0.100
463.000	-22.061	0.100
463.100	-39.076	0.100
463.200	-21.287	0.100
463.300	-4.681	0.100
463.400	-37.627	0.100
463.500	-9.170	0.100
463.600	-17.897	0.100
463.700	-20.068	0.099
463.800	-17.237	0.099
463.900	-15.366	0.100
464.000	-17.907	0.100
464.100	-34.801	0.100
464.200	-3.680	0.100
464.300	-2.496	0.100
464.400	-34.451	0.100
464.500	-14.719	0.100
464.600	-12.321	0.100
464.700	-19.237	0.100
464.800	-27.230	0.100
464.900	-20.105	0.100
465.000	-20.287	0.100
465.100	-12.764	0.100
465.200	-22.470	0.100
465.300	-31.326	0.100
465.400	-11.750	0.100
465.500	-3.981	0.100
465.600	-18.305	0.099
465.700	-31.753	0.100
465.800	-22.042	0.100
465.900	-9.145	0.100
466.000	-32.530	0.100
466.100	-27.638	0.100
466.200	-23.665	0.100
466.300	-12.179	0.099
466.400	-12.083	0.100
466.500	-30.898	0.100
466.600	-13.010	0.100
466.700	-27.085	0.100
466.800	-28.147	0.100
466.900	-5.465	0.100
467.000	-18.371	0.100
467.100	-33.278	0.100
467.200	-21.482	0.100
467.300	-0.792	0.100
467.400	-10.227	0.100
467.500	-24.495	0.100
467.600	-20.537	0.100
467.700	-17.826	0.100
467.800	-21.055	0.100
467.900	-10.340	0.100
468.000	-13.264	0.100
468.100	-25.346	0.100
468.200	-12.616	0.100
468.300	-17.229	0.100
468.400	-12.208	0.100
468.500	-26.294	0.100
468.600	-20.240	0.100
468.700	-18.094	0.100
468.800	-10.642	0.100
468.900	-22.682	0.100
469.000	-28.162	0.100
469.100	-16.877	0.099
469.200	-44.275	0.099
469.300	-17.673	0.100
469.400	-2.985	0.100
469.500	-26.417	0.099
469.600	-15.635	0.100
469.700	-13.637	0.099
469.800	-7.281	0.100
469.900	-9.324	0.100
470.000	-38.019	0.100
470.100	-9.796	0.100
470.200	-10.600	0.099
470.300	-25.692	0.100
470.400	-23.653	0.100
470.500	-20.492	0.099
470.600	-15.103	0.100
470.700	-31.848	0.100
470.800	-12.543	0.099
470.900	-21.377	0.100
471.000	-9.908	0.099
471.100	-12.946	0.100
471.200	-34.336	0.100
471.300	-10.438	0.100
471.400	-7.093	0.099
471.500	-28.427	0.100
471.600	-26.162	0.100
471.700	-19.098	0.100
471.800	-16.406	0.099
471.900	-14.816	0.100
472.000	-13.574	0.100
472.100	-30.021	0.100
472.200	-27.741	0.100
472.300	-18.658	0.100
472.400	-19.412	0.099
472.500	-27.137	0.100
472.600	-14.195	0.100
472.700	-10.917	0.100
472.800	-10.343	0.100
472.900	-26.712	0.100
473.000	-14.266	0.100
473.100	-18.238	0.099
473.200	-0.886	0.100
473.300	-38.393	0.100
473.400	-23.961	0.100
473.500	-37.248	0.100
473.600	-18.570	0.099
473.700	-26.128	0.100
473.800	-12.232	0.100
473.900	-20.839	0.099
474.000	-17.080	0.100
474.100	-26.228	0.099
474.200	-8.295	0.100
474.300	-22.528	0.100
474.400	-34.129	0.100
474.500	-12.009	0.100
474.600	-26.825	0.099
474.700	-22.673	0.099
474.800	-21.109	0.099
474.900	-10.581	0.100
475.000	-18.175	0.099
475.100	-25.260	0.100
475.200	-18.923	0.099
475.300	-30.061	0.100
475.400	-23.890	0.099
475.500	-28.052	0.099
475.600	-19.416	0.099
475.700	-37.973	0.099
475.800	-8.599	0.100
475.900	-13.218	0.100
476.000	-25.549	0.099
476.100	-17.512	0.100
476.200	-8.189	0.100
476.300	-21.009	0.099
476.400	-23.310	0.100
476.500	-26.687	0.099
476.600	-16.055	0.100
476.700	-19.403	0.099
476.800	-16.404	0.100
476.900	-16.503	0.100
477.000	-23.669	0.099
477.100	-9.872	0.100
477.200	-21.168	0.099
477.300	-3.564	0.100
477.400	-17.432	0.100
477.500	-27.821	0.099
477.600	-10.836	0.100
477.700	-12.294	0.100
477.800	-38.013	0.099
477.900	-20.540	0.099
478.000	-21.985	0.099
478.100	-25.121	0.099
478.200	-11.559	0.100
478.300	-18.513	0.099
478.400	-15.928	0.100
478.500	-22.194	0.099
478.600	-15.400	0.099
478.700	-14.221	0.099
478.800	-7.325	0.100
478.900	-32.151	0.100
479.000	-21.863	0.100
479.100	-14.400	0.099
479.200	-15.133	0.100
479.300	-19.217	0.100
479.400	-5.332	0.099
479.500	-22.282	0.099
479.600	-40.812	0.099
479.700	-17.684	0.100
479.800	-7.519	0.100
479.900	8.900	0.099
480.000	6.735	0.099
480.100	4.008	0.100
480.200	5.405	0.100
480.300	4.428	0.100
480.400	22.621	0.100
480.500	9.917	0.100
480.600	16.030	0.100
480.700	19.439	0.100
480.800	3.021	0.099
480.900	22.219	0.100
481.000	15.662	0.100
481.100	15.526	0.100
481.200	21.970	0.100
481.300	12.007	0.100
481.400	8.236	0.100
481.500	31.272	0.100
481.600	23.507	0.100
481.700	-1.037	0.099
481.800	28.766	0.099
481.900	-0.690	0.100
482.000	7.588	0.099
482.100	21.979	0.100
482.200	15.482	0.100
482.300	21.470	0.100
482.400	3.725	0.099
482.500	18.288	0.100
482.600	35.439	0.100
482.700	4.115	0.100
482.800	14.571	0.100
482.900	19.583	0.100
483.000	13.085	0.099
483.100	7.959	0.100
483.200	11.717	0.100
483.300	6.828	0.100
483.400	15.651	0.100
483.500	12.589	0.100
483.600	10.983	0.100
483.700	19.246	0.100
483.800	19.424	0.100
483.900	6.173	0.100
484.000	14.137	0.100
484.100	6.233	0.099
484.200	14.075	0.100
484.300	11.277	0.099
484.400	25.856	0.100
484.500	19.336	0.100
484.600	-8.368	0.099
484.700	2.941	0.100
484.800	34.186	0.100
484.900	16.730	0.100
485.000	21.667	0.100
485.100	-1.551	0.100
485.200	1.828	0.100
485.300	17.822	0.100
485.400	12.305	0.100
485.500	4.120	0.099
485.600	5.402	0.100
485.700	15.033	0.099
485.800	7.411	0.100
485.900	13.875	0.100
486.000	-3.035	0.099
486.100	-7.024	0.099
486.200	16.131	0.100
486.300	15.812	0.100
486.400	14.324	0.100
486.500	5.296	0.100
486.600	11.564	0.100
486.700	2.104	0.100
486.800	21.909	0.099
486.900	13.317	0.100
487.000	22.726	0.100
487.100	24.935	0.100
487.200	6.628	0.100
487.300	9.161	0.100
487.400	11.402	0.100
487.500	7.368	0.100
487.600	16.257	0.100
487.700	38.463	0.100
487.800	18.955	0.100
487.900	-8.221	0.099
488.000	16.569	0.100
488.100	37.733	0.099
488.200	11.836	0.100
488.300	31.854	0.100
488.400	9.585	0.099
488.500	27.859	0.100
488.600	13.406	0.099
488.700	0.919	0.100
488.800	16.163	0.100
488.900	14.035	0.100
489.000	23.888	0.100
489.100	25.439	0.100
489.200	13.412	0.100
489.300	19.896	0.100
489.400	12.066	0.100
489.500	24.695	0.100
489.600	21.449	0.100
489.700	29.071	0.100
489.800	2.933	0.100
489.900	23.048	0.100
490.000	33.247	0.100
490.100	16.387	0.100
490.200	26.858	0.100
490.300	31.418	0.100
490.400	-2.491	0.100
490.500	32.323	0.100
490.600	24.512	0.100
490.700	21.751	0.100
490.800	15.342	0.100
490.900	26.806	0.099
491.000	33.641	0.100
491.100	16.623	0.100
491.200	14.970	0.100
491.300	33.467	0.099
491.400	27.693	0.100
491.500	19.188	0.100
491.600	28.824	0.100
491.700	43.629	0.100
491.800	28.323	0.100
491.900	26.278	0.100
492.000	29.787	0.100
492.100	37.726	0.100
492.200	20.172	0.100
492.300	31.985	0.099
492.400	10.480	0.099
492.500	40.415	0.100
492.600	18.711	0.100
492.700	24.201	0.100
492.800	42.307	0.100
492.900	22.896	0.100
493.000	29.574	0.100
493.100	33.238	0.100
493.200	28.598	0.100
493.300	42.147	0.100
493.400	33.569	0.099
493.500	17.010	0.099
493.600	38.319	0.099
493.700	42.699	0.100
493.800	39.772	0.099
493.900	32.349	0.100
494.000	41.136	0.100
494.100	34.435	0.100
494.200	18.560	0.100
494.300	25.747	0.100
494.400	27.928	0.100
494.500	35.806	0.100
494.600	33.322	0.100
494.700	37.722	0.100
494.800	36.503	0.100
494.900	42.244	0.100
495.000	27.899	0.100
495.100	50.067	0.100
495.200	39.937	0.100
495.300	17.753	0.100
495.400	36.380	0.100
495.500	41.284	0.100
495.600	24.646	0.100
495.700	53.024	0.100
495.800	35.266	0.099
495.900	46.453	0.100
496.000	31.275	0.100
496.100	27.322	0.100
496.200	47.389	0.100
496.300	50.639	0.100
496.400	23.900	0.100
496.500	44.690	0.100
496.600	31.040	0.100
496.700	45.366	0.100
496.800	37.544	0.100
496.900	26.974	0.100
497.000	43.015	0.100
497.100	37.467	0.100
497.200	51.973	0.100
497.300	52.154	0.100
497.400	39.917	0.100
497.500	41.473	0.100
497.600	59.225	0.100
497.700	28.621	0.099
497.800	25.542	0.100
497.900	29.789	0.100
498.000	32.569	0.100
498.100	50.263	0.100
498.200	43.932	0.100
498.300	40.256	0.100
498.400	45.020	0.100
498.500	35.569	0.100
498.600	42.051	0.100
498.700	43.301	0.100
498.800	54.437	0.099
498.900	35.382	0.100
499.000	48.234	0.100
499.100	40.099	0.100
499.200	37.714	0.100
499.300	50.964	0.100
499.400	40.230	0.100
499.500	37.225	0.100
499.600	37.637	0.100
499.700	28.922	0.100
499.800	44.937	0.100
499.900	51.757	0.100
500.000	43.701	0.099
500.100	35.824	0.100
500.200	26.797	0.100
500.300	38.612	0.100
500.400	41.941	0.100
500.500	38.007	0.099
500.600	45.585	0.100
500.700	36.664	0.100
500.800	46.764	0.100
500.900	42.357	0.100
501.000	49.417	0.100
501.100	47.752	0.100
501.200	33.500	0.099
501.300	51.776	0.100
501.400	44.567	0.099
501.500	38.564	0.100
501.600	44.554	0.100
501.700	47.181	0.100
501.800	43.546	0.100
501.900	44.126	0.100
502.000	42.074	0.099
502.100	58.423	0.100
502.200	41.397	0.100
502.300	44.539	0.100
502.400	27.418	0.099
502.500	46.062	0.100
502.600	37.346	0.100
502.700	36.514	0.100
502.800	50.402	0.100
502.900	47.239	0.100
503.000	30.381	0.099
503.100	42.885	0.100
503.200	29.928	0.100
503.300	56.552	0.100
503.400	34.703	0.100
503.500	46.213	0.100
503.600	50.835	0.100
503.700	28.124	0.100
503.800	29.125	0.100
503.900	42.733	0.100
504.000	42.279	0.100
504.100	41.517	0.099
504.200	44.243	0.100
504.300	32.771	0.100
504.400	53.509	0.100
504.500	43.705	0.100
504.600	27.812	0.100
504.700	42.308	0.100
504.800	41.857	0.100
504.900	61.923	0.100
505.000	41.965	0.100
505.100	42.105	0.100
505.200	47.341	0.100
505.300	35.868	0.100
505.400	58.279	0.100
505.500	35.821	0.100
505.600	60.895	0.100
505.700	48.606	0.100
505.800	25.593	0.100
505.900	55.105	0.100
506.000	43.504	0.100
506.100	53.912	0.100
506.200	37.117	0.100
506.300	42.146	0.100
506.400	35.440	0.100
506.500	46.833	0.100
506.600	44.373	0.100
506.700	44.237	0.100
506.800	51.592	0.100
506.900	30.942	0.100
507.000	42.002	0.100
507.100	40.355	0.100
507.200	29.324	0.100
507.300	52.491	0.100
507.400	30.273	0.100
507.500	64.515	0.100
507.600	50.906	0.100
507.700	41.017	0.100
507.800	29.544	0.100
507.900	42.591	0.100
508.000	41.849	0.100
508.100	60.209	0.100
508.200	47.129	0.100
508.300	34.661	0.099
508.400	34.031	0.100
508.500	43.459	0.100
508.600	48.645	0.100
508.700	47.228	0.100
508.800	54.334	0.099
508.900	43.479	0.100
509.000	43.530	0.100
509.100	46.264	0.100
509.200	41.482	0.100
509.300	64.125	0.100
509.400	47.517	0.100
509.500	39.870	0.100
509.600	53.883	0.100
509.700	37.014	0.100
509.800	45.967	0.100
509.900	32.751	0.100
510.000	50.592	0.100
510.100	39.854	0.100
510.200	36.292	0.100
510.300	49.780	0.100
510.400	36.254	0.099
510.500	35.916	0.099
510.600	61.213	0.100
510.700	52.890	0.100
510.800	50.288	0.100
510.900	30.261	0.100
511.000	64.235	0.100
511.100	55.825	0.100
511.200	42.735	0.100
511.300	52.150	0.100
511.400	39.645	0.100
511.500	45.622	0.100
511.600	48.808	0.100
511.700	38.158	0.100
511.800	41.842	0.100
511.900	56.452	0.100
512.000	54.688	0.100
512.100	44.582	0.100
512.200	49.019	0.100
512.300	48.082	0.100
512.400	36.717	0.100
512.500	43.614	0.100
512.600	38.506	0.100
512.700	49.930	0.100
512.800	63.072	0.100
512.900	36.862	0.100
513.000	47.157	0.100
513.100	56.925	0.100
513.200	54.245	0.100
513.300	39.691	0.100
513.400	56.780	0.100
513.500	38.107	0.100
513.600	43.124	0.100
513.700	56.837	0.100
513.800	48.979	0.100
513.900	52.941	0.100
514.000	51.516	0.100
514.100	60.346	0.100
514.200	30.389	0.100
514.300	41.478	0.100
514.400	36.422	0.100
514.500	29.745	0.100
514.600	52.787	0.100
514.700	47.672	0.100
514.800	56.225	0.100
514.900	50.192	0.100
515.000	59.697	0.100
515.100	41.683	0.100
515.200	30.385	0.100
515.300	51.605	0.100
515.400	43.987	0.099
515.500	49.826	0.099
515.600	48.294	0.100
515.700	35.173	0.100
515.800	42.333	0.100
515.900	58.763	0.100
516.000	47.053	0.100
516.100	32.973	0.100
516.200	56.004	0.100
516.300	61.356	0.099
516.400	46.596	0.100
516.500	59.267	0.100
516.600	45.701	0.100
516.700	49.838	0.100
516.800	44.411	0.100
516.900	54.373	0.100
517.000	51.253	0.100
517.100	45.162	0.100
517.200	60.310	0.100
517.300	47.629	0.100
517.400	37.206	0.100
517.500	41.095	0.100
517.600	31.462	0.100
517.700	62.914	0.100
517.800	48.954	0.100
517.900	43.283	0.100
518.000	47.478	0.100
518.100	48.716	0.100
518.200	42.833	0.099
518.300	59.226	0.100
518.400	40.285	0.100
518.500	46.617	0.100
518.600	44.898	0.099
518.700	46.765	0.100
518.800	27.398	0.100
518.900	47.257	0.100
519.000	61.398	0.099
519.100	48.945	0.100
519.200	44.686	0.100
519.300	46.486	0.100
519.400	47.288	0.100
519.500	33.889	0.099
519.600	54.176	0.100
519.700	61.058	0.099
519.800	44.301	0.100
519.900	44.045	0.100
520.000	72.649	0.100
520.100	30.092	0.099
520.200	44.640	0.100
520.300	63.165	0.100
520.400	39.165	0.100
520.500	53.643	0.100
520.600	52.744	0.100
520.700	39.563	0.100
520.800	53.087	0.099
520.900	52.787	0.100
521.000	32.336	0.100
521.100	46.837	0.100
521.200	66.557	0.100
521.300	49.405	0.100
521.400	60.523	0.100
521.500	32.625	0.100
521.600	58.862	0.100
521.700	44.432	0.100
521.800	39.594	0.100
521.900	52.454	0.100
522.000	50.068	0.100
522.100	50.305	0.100
522.200	47.826	0.100
522.300	40.586	0.100
522.400	55.327	0.100
522.500	66.942	0.100
522.600	36.555	0.100
522.700	53.487	0.100
522.800	41.546	0.099
522.900	70.219	0.100
523.000	48.481	0.100
523.100	59.089	0.099
523.200	50.492	0.100
523.300	45.999	0.100
523.400	59.399	0.100
523.500	39.403	0.100
523.600	41.033	0.100
523.700	54.208	0.100
523.800	55.898	0.100
523.900	44.068	0.100
524.000	47.069	0.100
524.100	52.376	0.100
524.200	53.881	0.100
524.300	47.232	0.099
524.400	48.673	0.100
524.500	53.234	0.100
524.600	55.094	0.100
524.700	43.843	0.099
524.800	36.607	0.100
524.900	70.731	0.100
525.000	54.714	0.100
525.100	53.190	0.100
525.200	53.591	0.100
525.300	42.925	0.100
525.400	51.429	0.100
525.500	48.791	0.100
525.600	53.837	0.100
525.700	49.088	0.100
525.800	55.722	0.100
525.900	39.639	0.100
526.000	54.984	0.100
526.100	54.006	0.100
526.200	65.884	0.100
526.300	53.625	0.100
526.400	42.453	0.100
526.500	54.095	0.100
526.600	49.543	0.100
526.700	41.692	0.100
526.800	43.783	0.100
526.900	67.572	0.099
527.000	55.163	0.099
527.100	40.515	0.100
527.200	46.171	0.100
527.300	44.040	0.100
527.400	43.341	0.100
527.500	58.313	0.100
527.600	67.333	0.100
527.700	43.302	0.100
527.800	49.058	0.100
527.900	52.227	0.100
528.000	58.732	0.100
528.100	48.046	0.100
528.200	63.185	0.100
528.300	60.672	0.099
528.400	33.666	0.100
528.500	52.923	0.100
528.600	55.749	0.100
528.700	46.526	0.100
528.800	44.813	0.100
528.900	53.554	0.100
529.000	52.359	0.100
529.100	51.464	0.100
529.200	48.580	0.100
529.300	38.097	0.100
529.400	51.055	0.100
529.500	37.277	0.100
529.600	37.972	0.100
529.700	53.172	0.100
529.800	82.221	0.100
529.900	73.451	0.100
530.000	50.165	0.100
530.100	49.542	0.100
530.200	51.885	0.100
530.300	43.941	0.100
530.400	53.562	0.100
530.500	42.164	0.100
530.600	48.879	0.100
530.700	54.983	0.100
530.800	44.163	0.100
530.900	71.512	0.100
531.000	53.192	0.100
531.100	42.162	0.100
531.200	74.007	0.099
531.300	46.645	0.100
531.400	49.885	0.100
531.500	52.756	0.100
531.600	50.350	0.100
531.700	44.738	0.100
531.800	43.628	0.100
531.900	63.153	0.100
532.000	58.031	0.100
532.100	55.650	0.100
532.200	26.963	0.100
532.300	33.339	0.100
532.400	47.837	0.100
532.500	48.699	0.100
532.600	55.208	0.100
532.700	58.242	0.100
532.800	62.630	0.100
532.900	64.774	0.100
533.000	58.089	0.100
533.100	52.111	0.100
533.200	59.000	0.100
533.300	55.999	0.100
533.400	56.386	0.100
533.500	57.801	0.100
533.600	59.274	0.100
533.700	66.092	0.100
533.800	55.802	0.100
533.900	51.978	0.100
534.000	67.567	0.100
534.100	49.346	0.100
534.200	68.991	0.100
534.300	43.211	0.100
534.400	57.294	0.100
534.500	59.402	0.100
534.600	59.531	0.100
534.700	37.712	0.100
534.800	55.508	0.100
534.900	39.261	0.100
535.000	56.158	0.100
535.100	63.445	0.100
535.200	70.780	0.099
535.300	71.196	0.100
535.400	61.194	0.100
535.500	57.809	0.100
535.600	56.037	0.100
535.700	66.092	0.100
535.800	44.961	0.100
535.900	45.421	0.100
536.000	60.697	0.100
536.100	51.975	0.100
536.200	62.673	0.100
536.300	41.520	0.100
536.400	33.367	0.100
536.500	38.315	0.099
536.600	67.724	0.100
536.700	44.845	0.100
536.800	63.475	0.100
536.900	40.179	0.099
537.000	44.782	0.100
537.100	38.103	0.100
537.200	57.767	0.100
537.300	38.981	0.100
537.400	60.614	0.100
537.500	50.459	0.100
537.600	43.644	0.100
537.700	57.403	0.100
537.800	65.518	0.100
537.900	58.843	0.099
538.000	60.686	0.100
538.100	45.362	0.099
538.200	44.025	0.100
538.300	43.328	0.100
538.400	73.822	0.100
538.500	46.017	0.100
538.600	42.900	0.100
538.700	80.752	0.100
538.800	51.334	0.100
538.900	46.934	0.100
539.000	51.234	0.100
539.100	47.946	0.100
539.200	53.721	0.099
539.300	66.530	0.100
539.400	59.707	0.100
539.500	53.977	0.100
539.600	70.451	0.100
539.700	52.165	0.100
539.800	18.131	0.100
539.900	38.470	0.100
540.000	66.608	0.100
540.100	35.098	0.100
540.200	31.588	0.100
540.300	29.808	0.100
540.400	12.888	0.100
540.500	32.738	0.100
540.600	23.214	0.100
540.700	26.597	0.100
540.800	16.295	0.100
540.900	12.286	0.100
541.000	16.149	0.100
541.100	8.284	0.100
541.200	-4.437	0.100
541.300	14.564	0.100
541.400	22.328	0.100
541.500	0.957	0.100
541.600	-6.888	0.100
541.700	6.817	0.100
541.800	2.281	0.100
541.900	-12.568	0.100
542.000	-10.914	0.099
542.100	-3.770	0.100
542.200	-0.823	0.100
542.300	-25.692	0.100
542.400	-14.096	0.100
542.500	-14.562	0.100
542.600	-13.606	0.100
542.700	1.735	0.100
542.800	-5.488	0.100
542.900	-18.109	0.100
543.000	-18.428	0.100
543.100	-18.549	0.100
543.200	7.402	0.100
543.300	-14.792	0.100
543.400	-17.788	0.100
543.500	-9.006	0.100
543.600	-9.522	0.100
543.700	-20.490	0.100
543.800	-7.535	0.100
543.900	-10.811	0.100
544.000	-11.368	0.100
544.100	-7.213	0.100
544.200	-9.259	0.100
544.300	-5.120	0.100
544.400	-11.062	0.100
544.500	-10.506	0.099
544.600	-21.799	0.100
544.700	-22.353	0.099
544.800	-18.807	0.100
544.900	-10.773	0.100
545.000	-8.065	0.100
545.100	-7.649	0.100
545.200	0.402	0.100
545.300	-6.918	0.100
545.400	-7.026	0.100
545.500	-5.998	0.100
545.600	-8.589	0.100
545.700	-3.003	0.099
545.800	-4.739	0.100
545.900	5.705	0.100
546.000	-12.212	0.100
546.100	-3.341	0.100
546.200	-19.936	0.100
546.300	-12.872	0.100
546.400	-12.512	0.100
546.500	-2.442	0.100
546.600	-17.330	0.100
546.700	-29.065	0.100
546.800	-9.639	0.100
546.900	1.219	0.100
547.000	-4.102	0.100
547.100	-11.412	0.100
547.200	-6.612	0.100
547.300	-19.829	0.100
547.400	-20.254	0.100
547.500	-15.869	0.100
547.600	1.581	0.100
547.700	-10.689	0.100
547.800	-14.251	0.100
547.900	-16.292	0.100
548.000	-8.922	0.100
548.100	-3.395	0.100
548.200	2.745	0.100
548.300	-8.695	0.100
548.400	-21.572	0.100
548.500	-11.144	0.100
548.600	-10.456	0.100
548.700	-6.738	0.100
548.800	-21.522	0.100
548.900	-7.874	0.100
549.000	-26.551	0.100
549.100	-5.109	0.100
549.200	-9.585	0.100
549.300	-26.213	0.100
549.400	-16.304	0.100
549.500	5.970	0.100
549.600	-13.073	0.100
549.700	-26.886	0.100
549.800	1.769	0.099
549.900	-21.893	0.100
550.000	-3.011	0.100
550.100	-18.398	0.100
550.200	-16.630	0.100
550.300	-17.329	0.100
550.400	-8.154	0.099
550.500	-10.619	0.100
550.600	-23.020	0.100
550.700	-40.563	0.100
550.800	4.632	0.100
550.900	-9.843	0.100
551.000	-15.993	0.100
551.100	-9.487	0.100
551.200	-9.971	0.100
551.300	-16.476	0.100
551.400	-27.041	0.100
551.500	-15.047	0.100
551.600	-8.361	0.100
551.700	-21.130	0.100
551.800	-16.420	0.100
551.900	-16.795	0.100
552.000	-5.350	0.100
552.100	-1.986	0.100
552.200	-11.602	0.100
552.300	-30.613	0.100
552.400	-10.848	0.100
552.500	-22.281	0.100
552.600	-23.802	0.100
552.700	-21.774	0.100
552.800	-14.814	0.100
552.900	-14.093	0.100
553.000	-25.183	0.100
553.100	-25.626	0.100
553.200	0.295	0.100
553.300	-5.493	0.100
553.400	-18.327	0.100
553.500	-22.084	0.100
553.600	-18.639	0.099
553.700	-17.217	0.100
553.800	10.996	0.100
553.900	-32.387	0.100
554.000	-23.357	0.100
554.100	-23.207	0.100
554.200	-14.928	0.100
554.300	-10.070	0.100
554.400	-9.266	0.100
554.500	-12.059	0.100
554.600	-7.207	0.099
554.700	-18.337	0.100
554.800	-16.687	0.100
554.900	-16.931	0.100
555.000	-11.658	0.099
555.100	-3.148	0.100
555.200	-24.120	0.100
555.300	-13.973	0.100
555.400	-14.620	0.100
555.500	-5.890	0.099
555.600	-21.256	0.100
555.700	-29.917	0.100
555.800	-12.705	0.100
555.900	-23.094	0.100
556.000	-20.574	0.100
556.100	-2.654	0.100
556.200	-28.516	0.100
556.300	-16.860	0.100
556.400	-12.625	0.100
556.500	-16.571	0.100
556.600	-12.665	0.100
556.700	-11.216	0.100
556.800	-15.730	0.100
556.900	-8.979	0.100
557.000	-33.962	0.100
557.100	-18.148	0.100
557.200	-13.368	0.100
557.300	-9.707	0.100
557.400	-33.372	0.100
557.500	-33.767	0.100
557.600	-7.823	0.100
557.700	-14.357	0.099
557.800	-24.121	0.100
557.900	-24.274	0.100
558.000	-23.140	0.100
558.100	-21.158	0.099
558.200	-9.342	0.100
558.300	-0.187	0.100
558.400	-14.249	0.100
558.500	-7.397	0.100
558.600	-26.913	0.100
558.700	-33.848	0.100
558.800	-9.992	0.099
558.900	-30.056	0.100
559.000	-3.701	0.100
559.100	-25.388	0.100
559.200	-21.880	0.100
559.300	-13.104	0.100
559.400	-21.270	0.100
559.500	-11.369	0.100
559.600	-14.552	0.100
559.700	-9.235	0.100
559.800	-29.706	0.100
559.900	-10.400	0.100
560.000	-24.362	0.100
560.100	-26.288	0.100
560.200	-19.138	0.100
560.300	-14.522	0.100
560.400	-28.685	0.100
560.500	-8.475	0.100
560.600	-10.513	0.100
560.700	-32.581	0.100
560.800	-13.018	0.100
560.900	-21.019	0.100
561.000	-14.267	0.100
561.100	-8.345	0.100
561.200	-30.586	0.100
561.300	-9.715	0.100
561.400	-24.892	0.100
561.500	-5.876	0.100
561.600	-6.550	0.100
561.700	-18.197	0.100
561.800	-29.008	0.100
561.900	-32.232	0.100
562.000	-14.540	0.100
562.100	-18.380	0.100
562.200	-17.859	0.100
562.300	-26.539	0.100
562.400	-6.944	0.100
562.500	-34.224	0.100
562.600	-0.583	0.100
562.700	-33.085	0.100
562.800	-34.424	0.100
562.900	-24.617	0.100
563.000	-2.665	0.100
563.100	-28.536	0.100
563.200	-14.256	0.100
563.300	-19.450	0.100
563.400	-11.563	0.100
563.500	-15.889	0.100
563.600	-28.687	0.100
563.700	-6.084	0.100
563.800	-29.276	0.100
563.900	-16.976	0.100
564.000	-19.750	0.099
564.100	-24.569	0.100
564.200	-35.612	0.100
564.300	-29.038	0.100
564.400	-22.319	0.100
564.500	-11.952	0.100
564.600	-7.011	0.100
564.700	-22.782	0.100
564.800	-24.520	0.100
564.900	-31.427	0.100
565.000	-27.795	0.100
565.100	-13.143	0.100
565.200	-16.124	0.100
565.300	-21.932	0.100
565.400	-28.477	0.100
565.500	-15.221	0.100
565.600	-4.511	0.100
565.700	-15.192	0.100
565.800	-21.634	0.100
565.900	-44.960	0.100
566.000	-14.771	0.100
566.100	-12.423	0.100
566.200	-16.448	0.100
566.300	-21.492	0.100
566.400	-12.535	0.100
566.500	-18.617	0.100
566.600	-14.179	0.100
566.700	-25.024	0.100
566.800	-36.482	0.100
566.900	-17.162	0.100
567.000	-38.845	0.100
567.100	-14.389	0.100
567.200	-20.179	0.100
567.300	-23.502	0.100
567.400	-26.099	0.100
567.500	-19.470	0.099
567.600	-16.539	0.100
567.700	-12.563	0.100
567.800	-14.102	0.100
567.900	-22.721	0.100
568.000	-24.626	0.100
568.100	-29.016	0.100
568.200	-7.237	0.100
568.300	-26.667	0.100
568.400	-32.425	0.100
568.500	-27.215	0.100
568.600	-11.209	0.100
568.700	-8.354	0.100
568.800	-21.195	0.100
568.900	-30.041	0.100
569.000	-16.408	0.100
569.100	-24.187	0.100
569.200	-18.345	0.100
569.300	-30.948	0.100
569.400	-16.163	0.100
569.500	-28.813	0.100
569.600	-27.129	0.100
569.700	-16.719	0.100
569.800	-21.444	0.100
569.900	-16.206	0.100
570.000	-24.320	0.100
570.100	-8.009	0.100
570.200	-45.938	0.100
570.300	-26.609	0.100
570.400	-16.880	0.100
570.500	-29.764	0.100
570.600	-15.013	0.100
570.700	-19.139	0.100
570.800	-14.497	0.100
570.900	-25.343	0.100
571.000	-33.500	0.100
571.100	-15.243	0.100
571.200	-22.070	0.100
571.300	-12.387	0.100
571.400	-20.632	0.100
571.500	-23.629	0.100
571.600	-26.779	0.100
571.700	-25.562	0.100
571.800	-29.482	0.100
571.900	-36.240	0.100
572.000	-24.281	0.100
572.100	-19.164	0.100
572.200	-17.074	0.099
572.300	-32.212	0.100
572.400	-24.590	0.100
572.500	-13.790	0.100
572.600	-27.785	0.100
572.700	-22.837	0.100
572.800	-19.787	0.100
572.900	-18.828	0.100
573.000	-29.140	0.100
573.100	-32.911	0.099
573.200	-7.255	0.100
573.300	-18.075	0.100
573.400	-30.206	0.100
573.500	-18.940	0.100
573.600	-17.129	0.100
573.700	-25.040	0.100
573.800	-26.148	0.100
573.900	-20.779	0.100
574.000	-31.349	0.100
574.100	-8.149	0.100
574.200	-20.068	0.100
574.300	-23.661	0.100
574.400	-30.047	0.100
574.500	-30.371	0.100
574.600	-34.223	0.100
574.700	-22.712	0.100
574.800	-29.750	0.100
574.900	-42.017	0.100
575.000	-15.859	0.100
575.100	-38.094	0.100
575.200	-23.588	0.100
575.300	-16.527	0.100
575.400	-26.715	0.100
575.500	-9.634	0.099
575.600	-15.615	0.100
575.700	-28.625	0.100
575.800	-26.999	0.100
575.900	-16.224	0.100
576.000	-28.979	0.100
576.100	-26.601	0.100
576.200	-18.935	0.100
576.300	-28.550	0.100
576.400	-26.458	0.100
576.500	-17.618	0.100
576.600	-26.473	0.100
576.700	-35.336	0.100
576.800	-25.542	0.100
576.900	-39.449	0.100
577.000	-17.947	0.100
577.100	-22.289	0.100
577.200	-26.164	0.100
577.300	-9.825	0.100
577.400	-27.722	0.100
577.500	-20.217	0.100
577.600	-31.789	0.100
577.700	-21.691	0.100
577.800	-19.161	0.100
577.900	-21.196	0.100
578.000	-24.526	0.100
578.100	-47.256	0.100
578.200	-29.616	0.100
578.300	-27.016	0.100
578.400	-29.576	0.100
578.500	-20.205	0.100
578.600	-24.440	0.100
578.700	-27.923	0.100
578.800	-12.704	0.100
578.900	-18.147	0.100
579.000	-26.389	0.100
579.100	-19.132	0.100
579.200	-30.061	0.100
579.300	-22.302	0.100
579.400	-36.266	0.100
579.500	-44.916	0.100
579.600	-25.610	0.100
579.700	-19.894	0.100
579.800	-14.724	0.100
579.900	-24.565	0.100
580.000	-38.937	0.100
580.100	-10.118	0.100
580.200	-26.354	0.100
580.300	-24.374	0.100
580.400	-20.823	0.100
580.500	-21.785	0.100
580.600	-27.822	0.100
580.700	-35.173	0.100
580.800	-20.672	0.100
580.900	-19.457	0.100
581.000	-16.225	0.100
581.100	-19.537	0.100
581.200	-24.220	0.100
581.300	-25.300	0.100
581.400	-25.140	0.100
581.500	-31.402	0.100
581.600	-17.350	0.100
581.700	-28.188	0.100
581.800	-29.853	0.100
581.900	-26.900	0.100
582.000	-20.090	0.100
582.100	-19.657	0.100
582.200	-24.061	0.100
582.300	-27.962	0.100
582.400	-6.527	0.100
582.500	-14.468	0.100
582.600	-39.460	0.100
582.700	-5.410	0.100
582.800	-21.024	0.100
582.900	-26.984	0.100
583.000	-17.751	0.100
583.100	-10.219	0.100
583.200	-23.570	0.100
583.300	-34.655	0.100
583.400	-24.511	0.100
583.500	-10.470	0.100
583.600	-30.322	0.100
583.700	-20.248	0.100
583.800	-17.042	0.100
583.900	-17.607	0.100
584.000	-25.009	0.099
584.100	-21.202	0.100
584.200	-10.210	0.100
584.300	-41.961	0.100
584.400	-11.104	0.100
584.500	-23.779	0.100
584.600	-25.298	0.100
584.700	-24.914	0.100
584.800	-23.497	0.100
584.900	-27.920	0.099
585.000	-28.984	0.100
585.100	-25.752	0.100
585.200	-28.195	0.100
585.300	-34.390	0.100
585.400	-23.064	0.099
585.500	-39.892	0.099
585.600	-33.834	0.100
585.700	-8.570	0.100
585.800	-23.467	0.100
585.900	-36.971	0.100
586.000	-21.078	0.100
586.100	-22.884	0.100
586.200	-33.973	0.100
586.300	-36.733	0.099
586.400	-10.490	0.100
586.500	-17.778	0.100
586.600	-2.034	0.100
586.700	-22.062	0.100
586.800	-19.477	0.100
586.900	-33.613	0.100
587.000	-38.933	0.100
587.100	-26.998	0.100
587.200	-15.427	0.100
587.300	-26.066	0.100
587.400	-24.959	0.100
587.500	-7.574	0.100
587.600	-20.562	0.099
587.700	-30.498	0.100
587.800	-20.255	0.100
587.900	-36.802	0.100
588.000	-21.308	0.100
588.100	-13.690	0.100
588.200	-11.791	0.100
588.300	-32.027	0.100
588.400	-32.731	0.100
588.500	-27.289	0.100
588.600	-19.885	0.100
588.700	-24.820	0.100
588.800	-20.497	0.100
588.900	-25.144	0.100
589.000	-37.013	0.100
589.100	-13.540	0.100
589.200	-14.287	0.100
589.300	-20.253	0.099
589.400	-35.682	0.100
589.500	-19.316	0.099
589.600	-32.324	0.100
589.700	-24.188	0.100
589.800	-23.430	0.100
589.900	-32.153	0.100
590.000	-17.045	0.100
590.100	-10.002	0.100
590.200	-19.967	0.100
590.300	-21.008	0.100
590.400	-32.805	0.099
590.500	-38.144	0.099
590.600	-25.548	0.100
590.700	-21.859	0.099
590.800	-20.405	0.100
590.900	-31.522	0.099
591.000	-16.987	0.100
591.100	-34.241	0.100
591.200	-45.039	0.100
591.300	-12.353	0.099
591.400	-31.152	0.099
591.500	-26.069	0.100
591.600	-32.354	0.099
591.700	-19.012	0.099
591.800	-18.004	0.099
591.900	-41.362	0.100
592.000	-21.935	0.100
592.100	-20.878	0.099
592.200	-20.821	0.100
592.300	-30.701	0.100
592.400	-20.942	0.099
592.500	-22.713	0.099
592.600	-16.329	0.099
592.700	-34.794	0.100
592.800	-38.630	0.099
592.900	-12.501	0.100
593.000	0.511	0.100
593.100	-31.080	0.099
593.200	-30.803	0.099
593.300	-18.447	0.099
593.400	-27.735	0.099
593.500	-34.326	0.100
593.600	-32.627	0.099
593.700	-22.584	0.100
593.800	-19.203	0.100
593.900	-30.519	0.099
594.000	-32.364	0.100
594.100	-14.748	0.099
594.200	-12.825	0.099
594.300	-29.842	0.100
594.400	-10.275	0.099
594.500	-7.815	0.100
594.600	-25.727	0.100
594.700	-13.416	0.100
594.800	-36.148	0.099
594.900	-8.777	0.100
595.000	-33.868	0.100
595.100	-23.391	0.100
595.200	-29.063	0.099
595.300	-23.847	0.100
595.400	-20.027	0.100
595.500	-29.038	0.099
595.600	-22.046	0.100
595.700	-34.937	0.099
595.800	-12.702	0.100
595.900	-24.884	0.100
596.000	-25.415	0.100
596.100	-26.428	0.099
596.200	-22.220	0.100
596.300	-33.132	0.100
596.400	-22.094	0.100
596.500	-29.789	0.100
596.600	-24.991	0.100
596.700	-26.213	0.099
596.800	-30.585	0.100
596.900	-25.333	0.099
597.000	-13.683	0.100
597.100	-20.974	0.099
597.200	-27.014	0.099
597.300	-21.694	0.100
597.400	-27.473	0.099
597.500	-28.310	0.099
597.600	-20.512	0.099
597.700	-19.278	0.100
597.800	-0.682	0.099
597.900	-20.468	0.099
598.000	-28.114	0.100
598.100	-23.488	0.100
598.200	-18.802	0.100
598.300	-10.676	0.099
598.400	-22.513	0.100
598.500	-19.258	0.100
598.600	-26.833	0.100
598.700	-33.977	0.100
598.800	-27.327	0.099
598.900	-7.739	0.099
599.000	-11.386	0.099
599.100	-32.090	0.099
599.200	-16.330	0.100
599.300	-24.341	0.099
599.400	-23.285	0.099
599.500	-27.367	0.100
599.600	-42.517	0.099
599.700	-22.557	0.100
599.800	-16.168	0.100
599.900	-32.355	0.099
600.000	-27.520	0.099
600.100	-9.610	0.099
600.200	-26.729	0.099
600.300	-30.682	0.099
600.400	-9.143	0.099
600.500	-10.436	0.099
600.600	-13.507	0.099
600.700	-21.111	0.100
600.800	-10.116	0.099
600.900	-13.290	0.099
601.000	-43.826	0.100
601.100	-17.332	0.099
601.200	-10.457	0.099
601.300	-19.595	0.099
601.400	-28.331	0.099
601.500	-17.251	0.100
601.600	-30.365	0.099
601.700	-7.716	0.100
601.800	-17.954	0.099
601.900	-33.515	0.099
602.000	-22.033	0.100
602.100	-23.504	0.099
602.200	-22.961	0.099
602.300	-16.613	0.099
602.400	-39.441	0.099
602.500	-3.970	0.099
602.600	-16.510	0.099
602.700	-18.364	0.099
602.800	-25.428	0.099
602.900	-27.263	0.099
603.000	-24.453	0.099
603.100	-9.766	0.100
603.200	-19.449	0.099
603.300	-23.525	0.099
603.400	-49.972	0.099
603.500	-22.353	0.099
603.600	-14.309	0.099
603.700	-28.974	0.099
603.800	-18.902	0.099
603.900	-17.184	0.099
604.000	-30.025	0.099
604.100	-20.047	0.099
604.200	-12.407	0.099
604.300	-36.791	0.099
604.400	-10.382	0.099
604.500	-18.182	0.099
604.600	-10.342	0.100
604.700	-18.949	0.099
604.800	-24.736	0.099
604.900	-27.312	0.099
605.000	-23.456	0.099
605.100	-15.097	0.099
605.200	-22.041	0.099
605.300	-15.984	0.099
605.400	-28.425	0.099
605.500	-19.454	0.099
605.600	-19.471	0.100
605.700	-37.813	0.099
605.800	-11.402	0.099
605.900	-11.855	0.099
606.000	-15.961	0.099
606.100	-13.969	0.099
606.200	-32.406	0.099
606.300	-37.451	0.099
606.400	-7.074	0.099
606.500	-18.616	0.099
606.600	-17.992	0.099
606.700	-22.030	0.099
606.800	-24.311	0.099
606.900	-10.964	0.099
607.000	-32.408	0.099
607.100	-34.458	0.099
607.200	-6.291	0.099
607.300	-31.645	0.099
607.400	-25.663	0.099
607.500	-3.836	0.099
607.600	-25.542	0.099
607.700	-38.256	0.099
607.800	-10.156	0.099
607.900	-13.573	0.099
608.000	-12.831	0.099
608.100	-30.544	0.099
608.200	-36.332	0.099
608.300	-24.223	0.099
608.400	-32.433	0.099
608.500	-18.708	0.099
608.600	-21.418	0.099
608.700	-22.193	0.099
608.800	-19.959	0.099
608.900	-27.517	0.099
609.000	-28.385	0.099
609.100	-14.099	0.099
609.200	-23.124	0.099
609.300	-17.786	0.099
609.400	-24.442	0.099
609.500	-22.721	0.099
609.600	-14.308	0.099
609.700	-35.133	0.099
609.800	-21.999	0.099
609.900	-29.337	0.099
610.000	-28.033	0.099
610.100	-7.558	0.099
610.200	-27.225	0.099
610.300	-13.581	0.099
610.400	-19.647	0.100
610.500	-19.012	0.099
610.600	-21.019	0.099
610.700	-27.256	0.099
610.800	-22.077	0.099
610.900	-20.409	0.099
611.000	-20.559	0.099
611.100	-29.071	0.099
611.200	-31.677	0.099
611.300	-29.057	0.099
611.400	-18.338	0.099
611.500	3.217	0.099
611.600	-29.139	0.099
611.700	-23.955	0.099
611.800	-36.790	0.099
611.900	-37.278	0.099
612.000	-4.877	0.099
612.100	-24.060	0.099
612.200	-24.712	0.099
612.300	-15.524	0.099
612.400	-30.579	0.099
612.500	-29.731	0.099
612.600	-26.988	0.099
612.700	-20.710	0.099
612.800	-29.631	0.099
612.900	-22.842	0.099
613.000	-23.782	0.099
613.100	-11.160	0.099
613.200	-8.165	0.099
613.300	-28.947	0.099
613.400	-20.564	0.099
613.500	-41.205	0.099
613.600	-14.127	0.099
613.700	-10.782	0.099
613.800	-4.403	0.099
613.900	-28.360	0.099
614.000	-24.081	0.099
614.100	-20.709	0.099
614.200	-18.508	0.099
614.300	-26.110	0.099
614.400	-41.098	0.099
614.500	-34.096	0.099
614.600	-8.393	0.099
614.700	-26.661	0.099
614.800	-23.295	0.099
614.900	-12.721	0.099
615.000	-8.153	0.099
615.100	-15.674	0.099
615.200	-16.504	0.099
615.300	-14.147	0.099
615.400	-20.420	0.099
615.500	-19.745	0.099
615.600	-26.114	0.099
615.700	-14.427	0.099
615.800	-25.734	0.099
615.900	-10.470	0.099
616.000	-18.644	0.099
616.100	-17.144	0.099
616.200	-14.979	0.099
616.300	-20.160	0.099
616.400	-45.020	0.099
616.500	-23.436	0.099
616.600	-9.331	0.099
616.700	-22.335	0.099
616.800	-21.247	0.099
616.900	-17.083	0.099
617.000	-38.713	0.099
617.100	-11.930	0.099
617.200	-10.021	0.099
617.300	-26.600	0.099
617.400	-29.850	0.099
617.500	-27.905	0.099
617.600	-12.003	0.099
617.700	-26.905	0.099
617.800	-25.133	0.099
617.900	-32.541	0.099
618.000	-12.751	0.099
618.100	-11.147	0.099
618.200	-26.478	0.099
618.300	-48.166	0.099
618.400	-22.197	0.099
618.500	-23.923	0.099
618.600	-1.971	0.099
618.700	-19.233	0.099
618.800	-27.371	0.099
618.900	-45.178	0.099
619.000	-0.279	0.099
619.100	-23.502	0.099
619.200	-35.152	0.099
619.300	7.473	0.099
619.400	-20.442	0.099
619.500	-29.846	0.099
619.600	-24.840	0.099
619.700	-14.306	0.099
619.800	-15.107	0.099
619.900	2.221	0.099
620.000	-23.852	0.099
620.100	-28.885	0.099
620.200	-13.974	0.099
620.300	-12.417	0.099
620.400	-24.306	0.099
620.500	-10.329	0.099
620.600	-13.632	0.099
620.700	-24.334	0.099
620.800	-16.859	0.099
620.900	-28.135	0.099
621.000	-31.414	0.099
621.100	-11.006	0.099
621.200	-20.829	0.099
621.300	-17.152	0.099
621.400	-22.984	0.099
621.500	-13.580	0.099
621.600	-16.056	0.099
621.700	-16.224	0.099
621.800	-19.196	0.099
621.900	-10.306	0.099
622.000	-14.388	0.099
622.100	-22.711	0.099
622.200	-21.892	0.099
622.300	-8.842	0.099
622.400	-38.666	0.099
622.500	-18.733	0.099
622.600	-21.417	0.099
622.700	-16.807	0.099
622.800	-31.482	0.099
622.900	-17.261	0.099
623.000	-37.038	0.099
623.100	-29.469	0.099
623.200	-49.559	0.099
623.300	-5.263	0.099
623.400	-17.184	0.099
623.500	-6.872	0.099
623.600	-24.383	0.099
623.700	-14.105	0.099
623.800	-15.293	0.099
623.900	-13.287	0.099
624.000	-38.352	0.099
624.100	-5.407	0.099
624.200	-24.122	0.099
624.300	-22.803	0.099
624.400	-25.779	0.099
624.500	-15.711	0.099
624.600	-18.424	0.099
624.700	-15.914	0.099
624.800	-14.583	0.099
624.900	-21.870	0.099
625.000	-26.047	0.099
625.100	-27.578	0.099
625.200	-21.054	0.099
625.300	-33.659	0.099
625.400	-10.043	0.099
625.500	-30.703	0.099
625.600	-14.615	0.099
625.700	-10.597	0.099
625.800	-13.666	0.099
625.900	-23.192	0.099
626.000	-21.774	0.099
626.100	-14.798	0.099
626.200	-33.388	0.099
626.300	-1.393	0.099
626.400	-19.261	0.099
626.500	-34.452	0.099
626.600	-34.921	0.099
626.700	-17.401	0.099
626.800	-12.868	0.099
626.900	-24.826	0.099
627.000	-37.942	0.099
627.100	-18.876	0.099
627.200	4.341	0.099
627.300	-9.421	0.099
627.400	-18.911	0.099
627.500	-13.203	0.099
627.600	-31.648	0.099
627.700	-25.943	0.099
627.800	-39.259	0.099
627.900	-10.435	0.099
628.000	-9.928	0.099
628.100	-10.966	0.099
628.200	-14.530	0.099
628.300	-38.092	0.099
628.400	-16.976	0.099
628.500	-32.788	0.099
628.600	-25.295	0.099
628.700	-32.756	0.099
628.800	-27.010	0.099
628.900	-18.195	0.099
629.000	-12.475	0.099
629.100	-26.507	0.099
629.200	-25.422	0.099
629.300	-25.536	0.099
629.400	-36.452	0.099
629.500	-8.446	0.099
629.600	-10.615	0.099
629.700	-20.762	0.099
629.800	-12.667	0.099
629.900	-12.448	0.099
630.000	-3.660	0.099
630.100	-12.144	0.099
630.200	-3.438	0.099
630.300	17.672	0.099
630.400	19.761	0.099
630.500	2.862	0.099
630.600	17.883	0.099
630.700	15.457	0.099
630.800	23.596	0.099
630.900	21.431	0.099
631.000	18.818	0.099
631.100	23.541	0.099
631.200	25.155	0.099
631.300	13.006	0.099
631.400	-1.080	0.099
631.500	20.063	0.099
631.600	19.488	0.099
631.700	15.867	0.099
631.800	15.535	0.099
631.900	20.221	0.099
632.000	27.617	0.099
632.100	21.284	0.099
632.200	24.188	0.099
632.300	2.845	0.099
632.400	32.679	0.099
632.500	22.472	0.099
632.600	10.961	0.099
632.700	13.486	0.099
632.800	15.470	0.099
632.900	10.653	0.099
633.000	26.198	0.099
633.100	18.093	0.099
633.200	14.977	0.099
633.300	13.822	0.099
633.400	8.712	0.099
633.500	26.888	0.099
633.600	-1.483	0.099
633.700	6.350	0.099
633.800	23.269	0.099
633.900	24.630	0.099
634.000	-3.232	0.099
634.100	5.189	0.099
634.200	20.522	0.099
634.300	13.398	0.099
634.400	19.719	0.099
634.500	16.322	0.099
634.600	1.825	0.099
634.700	15.769	0.099
634.800	15.813	0.099
634.900	9.971	0.099
635.000	20.706	0.099
635.100	8.604	0.099
635.200	5.687	0.099
635.300	-7.081	0.099
635.400	12.227	0.099
635.500	8.172	0.099
635.600	18.369	0.099
635.700	-2.685	0.099
635.800	23.669	0.099
635.900	14.587	0.099
636.000	2.609	0.099
636.100	9.658	0.099
636.200	-3.570	0.099
636.300	22.087	0.099
636.400	17.997	0.099
636.500	7.704	0.099
636.600	13.096	0.099
636.700	9.763	0.099
636.800	7.640	0.099
636.900	3.805	0.099
637.000	13.339	0.099
637.100	24.398	0.099
637.200	12.523	0.099
637.300	8.756	0.099
637.400	30.970	0.099
637.500	11.589	0.099
637.600	9.359	0.099
637.700	6.804	0.099
637.800	14.591	0.099
637.900	10.975	0.099
638.000	23.071	0.099
638.100	8.932	0.099
638.200	13.437	0.099
638.300	17.330	0.099
638.400	21.857	0.099
638.500	0.232	0.099
638.600	14.443	0.099
638.700	20.985	0.099
638.800	-12.682	0.099
638.900	36.721	0.099
639.000	26.820	0.099
639.100	23.199	0.099
639.200	17.201	0.099
639.300	19.118	0.099
639.400	16.917	0.099
639.500	32.772	0.099
639.600	18.652	0.099
639.700	19.019	0.099
639.800	30.435	0.099
639.900	20.579	0.099
640.000	18.563	0.099
640.100	21.822	0.099
640.200	21.013	0.099
640.300	26.283	0.099
640.400	11.482	0.099
640.500	22.388	0.099
640.600	11.902	0.099
640.700	15.589	0.099
640.800	27.850	0.099
640.900	25.324	0.099
641.000	34.959	0.099
641.100	20.659	0.099
641.200	33.646	0.099
641.300	45.139	0.099
641.400	27.747	0.099
641.500	11.712	0.099
641.600	24.621	0.099
641.700	24.453	0.099
641.800	21.410	0.099
641.900	36.055	0.099
642.000	44.021	0.099
642.100	21.963	0.099
642.200	42.889	0.099
642.300	22.667	0.099
642.400	16.835	0.099
642.500	22.450	0.099
642.600	55.786	0.099
642.700	12.884	0.099
642.800	14.384	0.099
642.900	37.614	0.099
643.000	19.610	0.099
643.100	34.118	0.099
643.200	27.508	0.099
643.300	31.105	0.099
643.400	62.352	0.099
643.500	22.772	0.099
643.600	22.686	0.099
643.700	44.361	0.099
643.800	31.117	0.099
643.900	20.707	0.099
644.000	53.070	0.099
644.100	39.316	0.099
644.200	22.575	0.099
644.300	36.006	0.099
644.400	34.712	0.099
644.500	29.455	0.099
644.600	41.872	0.099
644.700	35.849	0.099
644.800	45.248	0.099
644.900	27.748	0.099
645.000	36.562	0.099
645.100	36.734	0.099
645.200	51.386	0.099
645.300	37.435	0.099
645.400	28.118	0.099
645.500	18.213	0.099
645.600	50.114	0.099
645.700	52.078	0.099
645.800	46.191	0.099
645.900	39.913	0.099
646.000	28.435	0.099
646.100	35.575	0.099
646.200	39.584	0.099
646.300	29.891	0.099
646.400	35.007	0.099
646.500	52.918	0.099
646.600	30.507	0.099
646.700	55.522	0.099
646.800	34.008	0.099
646.900	45.421	0.099
647.000	40.863	0.099
647.100	27.377	0.099
647.200	54.590	0.099
647.300	19.280	0.099
647.400	47.839	0.099
647.500	33.991	0.099
647.600	41.983	0.099
647.700	52.700	0.099
647.800	35.569	0.099
647.900	38.218	0.099
648.000	42.500	0.099
648.100	24.661	0.099
648.200	36.796	0.099
648.300	35.254	0.099
648.400	58.929	0.099
648.500	54.230	0.099
648.600	22.918	0.099
648.700	38.682	0.099
648.800	45.965	0.099
648.900	45.270	0.099
649.000	51.714	0.099
649.100	29.927	0.099
649.200	36.566	0.099
649.300	53.536	0.099
649.400	36.463	0.099
649.500	25.367	0.099
649.600	47.792	0.099
649.700	36.201	0.099
649.800	54.329	0.099
649.900	42.030	0.099
650.000	28.759	0.099
650.100	43.365	0.099
650.200	39.934	0.099
650.300	33.275	0.099
650.400	48.758	0.099
650.500	48.181	0.099
650.600	39.467	0.099
650.700	48.523	0.099
650.800	31.376	0.099
650.900	41.710	0.099
651.000	43.914	0.099
651.100	43.232	0.099
651.200	31.554	0.099
651.300	9.958	0.099
651.400	52.758	0.099
651.500	60.305	0.099
651.600	52.598	0.099
651.700	49.745	0.099
651.800	41.521	0.099
651.900	38.519	0.099
652.000	37.023	0.099
652.100	20.305	0.099
652.200	24.239	0.099
652.300	50.074	0.099
652.400	48.876	0.099
652.500	29.969	0.099
652.600	55.656	0.099
652.700	35.282	0.099
652.800	45.728	0.099
652.900	39.748	0.099
653.000	50.179	0.099
653.100	47.641	0.099
653.200	44.619	0.099
653.300	58.853	0.099
653.400	35.681	0.099
653.500	26.745	0.099
653.600	38.755	0.099
653.700	48.942	0.099
653.800	30.966	0.099
653.900	44.037	0.099
654.000	43.762	0.099
654.100	50.812	0.099
654.200	45.804	0.099
654.300	47.199	0.099
654.400	29.826	0.099
654.500	54.444	0.099
654.600	24.966	0.099
654.700	46.698	0.099
654.800	53.035	0.099
654.900	24.623	0.099
655.000	40.260	0.099
655.100	40.351	0.099
655.200	42.372	0.099
655.300	15.515	0.099
655.400	46.231	0.099
655.500	42.022	0.099
655.600	47.899	0.099
655.700	39.877	0.099
655.800	37.934	0.099
655.900	34.733	0.099
656.000	29.089	0.099
656.100	50.890	0.099
656.200	33.845	0.099
656.300	50.453	0.099
656.400	60.990	0.099
656.500	59.230	0.099
656.600	40.626	0.099
656.700	28.692	0.099
656.800	29.697	0.099
656.900	34.488	0.099
657.000	48.849	0.099
657.100	47.527	0.099
657.200	43.216	0.099
657.300	37.753	0.099
657.400	42.190	0.099
657.500	44.941	0.099
657.600	47.786	0.099
657.700	26.396	0.099
657.800	49.441	0.099
657.900	42.277	0.099
658.000	48.594	0.099
658.100	60.506	0.099
658.200	48.536	0.099
658.300	49.835	0.099
658.400	44.283	0.099
658.500	51.965	0.099
658.600	43.473	0.099
658.700	40.587	0.099
658.800	45.761	0.099
658.900	52.428	0.099
659.000	45.523	0.099
659.100	42.149	0.099
659.200	48.516	0.099
659.300	44.077	0.099
659.400	64.127	0.099
659.500	42.000	0.099
659.600	41.617	0.099
659.700	21.745	0.099
659.800	52.924	0.099
659.900	60.185	0.099
660.000	52.856	0.099
660.100	49.249	0.099
660.200	30.904	0.099
660.300	38.844	0.099
660.400	47.089	0.099
660.500	47.674	0.099
660.600	51.104	0.099
660.700	41.316	0.099
660.800	32.901	0.099
660.900	28.721	0.099
661.000	61.196	0.099
661.100	36.279	0.099
661.200	41.459	0.099
661.300	46.422	0.099
661.400	17.090	0.099
661.500	61.137	0.099
661.600	37.678	0.099
661.700	54.106	0.099
661.800	57.222	0.099
661.900	36.202	0.099
662.000	58.636	0.099
662.100	37.628	0.099
662.200	41.641	0.099
662.300	49.758	0.099
662.400	40.552	0.099
662.500	45.072	0.099
662.600	56.693	0.099
662.700	42.317	0.099
662.800	36.115	0.099
662.900	54.728	0.099
663.000	64.840	0.099
663.100	27.490	0.099
663.200	55.236	0.099
663.300	36.113	0.099
663.400	47.299	0.099
663.500	41.008	0.099
663.600	36.707	0.099
663.700	32.176	0.099
663.800	43.266	0.099
663.900	55.820	0.099
664.000	55.751	0.099
664.100	31.740	0.099
664.200	52.328	0.099
664.300	32.576	0.099
664.400	45.755	0.099
664.500	67.913	0.099
664.600	43.173	0.099
664.700	42.326	0.099
664.800	36.500	0.099
664.900	55.332	0.099
665.000	49.041	0.099
665.100	54.428	0.099
665.200	44.428	0.099
665.300	38.510	0.099
665.400	41.618	0.099
665.500	47.631	0.099
665.600	30.299	0.099
665.700	40.577	0.099
665.800	55.723	0.099
665.900	47.671	0.099
666.000	32.590	0.099
666.100	62.809	0.099
666.200	44.476	0.099
666.300	58.409	0.099
666.400	50.601	0.099
666.500	44.962	0.099
666.600	53.175	0.099
666.700	37.291	0.099
666.800	35.125	0.099
666.900	58.500	0.099
667.000	51.151	0.099
667.100	56.428	0.099
667.200	34.362	0.099
667.300	45.131	0.099
667.400	50.942	0.099
667.500	36.239	0.099
667.600	60.570	0.099
667.700	34.421	0.099
667.800	53.584	0.099
667.900	42.827	0.099
668.000	43.181	0.099
668.100	42.771	0.099
668.200	55.084	0.099
668.300	61.768	0.099
668.400	36.764	0.099
668.500	34.742	0.099
668.600	61.388	0.099
668.700	49.920	0.099
668.800	40.217	0.099
668.900	58.253	0.099
669.000	41.553	0.099
669.100	41.280	0.099
669.200	52.937	0.099
669.300	57.591	0.099
669.400	42.338	0.099
669.500	64.091	0.099
669.600	63.307	0.099
669.700	33.293	0.099
669.800	32.090	0.099
669.900	48.003	0.099
670.000	54.664	0.099
670.100	47.084	0.099
670.200	54.463	0.099
670.300	56.548	0.099
670.400	37.318	0.099
670.500	45.962	0.099
670.600	48.377	0.099
670.700	56.021	0.099
670.800	52.644	0.099
670.900	65.165	0.099
671.000	36.089	0.099
671.100	46.084	0.099
671.200	43.274	0.099
671.300	50.275	0.099
671.400	55.621	0.099
671.500	39.232	0.099
671.600	49.551	0.099
671.700	62.855	0.099
671.800	56.751	0.099
671.900	54.737	0.099
672.000	29.723	0.099
672.100	53.883	0.099
672.200	55.451	0.099
672.300	43.114	0.099
672.400	59.128	0.099
672.500	52.791	0.099
672.600	34.572	0.099
672.700	47.515	0.099
672.800	58.670	0.099
672.900	54.557	0.099
673.000	42.938	0.099
673.100	47.517	0.099
673.200	36.747	0.099
673.300	42.214	0.099
673.400	53.050	0.099
673.500	48.062	0.099
673.600	56.495	0.099
673.700	37.949	0.099
673.800	56.708	0.099
673.900	54.136	0.099
674.000	60.553	0.099
674.100	36.444	0.099
674.200	60.682	0.099
674.300	42.788	0.099
674.400	49.559	0.099
674.500	30.932	0.099
674.600	46.583	0.099
674.700	62.378	0.099
674.800	31.128	0.099
674.900	59.403	0.099
675.000	44.916	0.099
675.100	49.331	0.099
675.200	61.718	0.099
675.300	46.271	0.099
675.400	32.262	0.099
675.500	32.630	0.099
675.600	60.912	0.099
675.700	52.589	0.099
675.800	42.203	0.099
675.900	59.898	0.099
676.000	50.785	0.099
676.100	55.851	0.099
676.200	28.565	0.100
676.300	40.425	0.099
676.400	48.175	0.100
676.500	44.784	0.100
676.600	35.711	0.100
676.700	44.662	0.100
676.800	54.881	0.100
676.900	63.031	0.100
677.000	65.103	0.100
677.100	44.191	0.100
677.200	47.591	0.100
677.300	48.289	0.100
677.400	60.327	0.100
677.500	59.647	0.100
677.600	50.822	0.100
677.700	48.512	0.100
677.800	45.863	0.100
677.900	51.143	0.100
678.000	44.946	0.100
678.100	57.405	0.100
678.200	47.146	0.100
678.300	52.057	0.100
678.400	57.485	0.100
678.500	58.149	0.100
678.600	56.890	0.100
678.700	49.642	0.100
678.800	42.028	0.100
678.900	65.463	0.100
679.000	38.376	0.100
679.100	53.475	0.100
679.200	70.267	0.100
679.300	65.513	0.100
679.400	54.919	0.100
679.500	56.618	0.100
679.600	66.424	0.100
679.700	60.706	0.100
679.800	49.292	0.100
679.900	45.024	0.100
680.000	61.560	0.100
680.100	56.785	0.100
680.200	54.588	0.100
680.300	42.728	0.100
680.400	49.443	0.100
680.500	42.913	0.100
680.600	54.340	0.100
680.700	67.721	0.100
680.800	59.421	0.100
680.900	43.882	0.100
681.000	48.467	0.100
681.100	53.827	0.100
681.200	65.571	0.100
681.300	50.313	0.100
681.400	49.508	0.100
681.500	51.501	0.100
681.600	67.391	0.100
681.700	34.065	0.100
681.800	83.129	0.100
681.900	54.350	0.100
682.000	50.625	0.100
682.100	60.418	0.100
682.200	63.395	0.100
682.300	57.138	0.100
682.400	54.877	0.100
682.500	57.797	0.100
682.600	51.336	0.100
682.700	55.762	0.100
682.800	34.346	0.100
682.900	64.188	0.100
683.000	47.414	0.100
683.100	63.427	0.100
683.200	48.122	0.100
683.300	46.757	0.100
683.400	50.852	0.100
683.500	66.351	0.100
683.600	62.147	0.100
683.700	44.858	0.100
683.800	56.232	0.100
683.900	55.766	0.100
684.000	57.778	0.100
684.100	56.012	0.100
684.200	52.829	0.100
684.300	62.125	0.100
684.400	46.505	0.100
684.500	59.078	0.100
684.600	57.024	0.100
684.700	60.140	0.100
684.800	58.206	0.100
684.900	49.146	0.100
685.000	63.909	0.100
685.100	78.485	0.100
685.200	33.272	0.100
685.300	49.649	0.100
685.400	69.715	0.100
685.500	50.539	0.100
685.600	61.673	0.100
685.700	45.426	0.100
685.800	55.351	0.100
685.900	68.993	0.100
686.000	55.961	0.100
686.100	57.695	0.100
686.200	53.879	0.100
686.300	67.784	0.100
686.400	67.429	0.100
686.500	50.145	0.100
686.600	36.360	0.100
686.700	57.421	0.100
686.800	52.903	0.100
686.900	61.664	0.100
687.000	48.556	0.100
687.100	54.683	0.100
687.200	52.906	0.100
687.300	47.142	0.100
687.400	45.778	0.100
687.500	59.159	0.100
687.600	57.717	0.100
687.700	50.508	0.100
687.800	31.478	0.100
687.900	53.199	0.100
688.000	58.994	0.100
688.100	51.301	0.100
688.200	57.073	0.100
688.300	42.946	0.100
688.400	62.693	0.100
688.500	50.909	0.100
688.600	53.563	0.100
688.700	40.630	0.100
688.800	61.867	0.100
688.900	69.514	0.100
689.000	48.965	0.100
689.100	58.912	0.100
689.200	54.108	0.100
689.300	39.859	0.100
689.400	60.928	0.100
689.500	48.023	0.100
689.600	43.397	0.100
689.700	48.229	0.100
689.800	57.603	0.100
689.900	57.679	0.100
690.000	46.037	0.100
690.100	26.955	0.100
690.200	30.785	0.100
690.300	41.343	0.100
690.400	48.499	0.100
690.500	28.109	0.100
690.600	22.990	0.100
690.700	18.668	0.100
690.800	14.116	0.100
690.900	30.222	0.100
691.000	20.430	0.100
691.100	10.061	0.100
691.200	3.290	0.100
691.300	24.485	0.100
691.400	1.912	0.100
691.500	6.107	0.100
691.600	10.098	0.100
691.700	-9.373	0.100
691.800	3.504	0.100
691.900	-0.700	0.100
692.000	7.584	0.100
692.100	-29.012	0.100
692.200	-9.526	0.100
692.300	0.149	0.100
692.400	7.191	0.100
692.500	-2.421	0.100
692.600	-7.431	0.100
692.700	-0.357	0.100
692.800	-31.883	0.100
692.900	-19.817	0.100
693.000	-25.180	0.100
693.100	14.898	0.100
693.200	-6.601	0.100
693.300	-2.392	0.100
693.400	-16.826	0.100
693.500	-2.728	0.100
693.600	-15.505	0.100
693.700	-17.046	0.100
693.800	11.356	0.100
693.900	-18.739	0.100
694.000	3.341	0.100
694.100	-7.251	0.100
694.200	-12.183	0.100
694.300	-16.309	0.100
694.400	-9.139	0.100
694.500	-13.032	0.100
694.600	-2.093	0.100
694.700	-8.683	0.100
694.800	4.480	0.100
694.900	-5.654	0.100
695.000	-11.176	0.100
695.100	-29.718	0.100
695.200	-6.364	0.100
695.300	5.733	0.100
695.400	-14.030	0.100
695.500	-1.302	0.100
695.600	-24.692	0.100
695.700	-13.051	0.100
695.800	0.515	0.100
695.900	-23.233	0.100
696.000	-23.725	0.100
696.100	-1.535	0.100
696.200	-11.782	0.100
696.300	1.217	0.100
696.400	-20.628	0.100
696.500	4.088	0.100
696.600	-19.851	0.100
696.700	-24.681	0.100
696.800	-17.377	0.100
696.900	2.292	0.100
697.000	-23.309	0.100
697.100	-3.255	0.100
697.200	-0.906	0.100
697.300	-13.020	0.100
697.400	-4.852	0.100
697.500	-21.456	0.100
697.600	-0.192	0.100
697.700	-10.764	0.100
697.800	-18.674	0.100
697.900	-10.879	0.100
698.000	-7.421	0.100
698.100	1.711	0.100
698.200	-32.601	0.100
698.300	-7.526	0.100
698.400	-14.021	0.100
698.500	-21.412	0.100
698.600	-13.411	0.100
698.700	-7.566	0.100
698.800	-10.522	0.100
698.900	-11.321	0.100
699.000	-13.543	0.100
699.100	-5.732	0.100
699.200	-15.105	0.100
699.300	-21.344	0.100
699.400	-1.621	0.100
699.500	2.356	0.100
699.600	-8.131	0.100
699.700	-16.899	0.100
699.800	-22.512	0.100
699.900	-4.877	0.100
700.000	-10.474	0.100
700.100	-5.772	0.100
700.200	-18.897	0.099
700.300	-7.693	0.099
700.400	-14.026	0.100
700.500	-21.417	0.099
700.600	-17.782	0.100
700.700	-12.851	0.100
700.800	-20.164	0.100
700.900	-17.938	0.100
701.000	-18.387	0.100
701.100	1.044	0.100
701.200	-18.555	0.099
701.300	-31.851	0.099
701.400	-19.620	0.100
701.500	-22.073	0.099
701.600	-8.487	0.100
701.700	-9.245	0.100
701.800	-7.434	0.100
701.900	-23.873	0.099
702.000	-15.532	0.100
702.100	-22.352	0.099
702.200	-8.374	0.100
702.300	-3.322	0.100
702.400	-15.918	0.100
702.500	-17.667	0.100
702.600	-33.922	0.100
702.700	-2.104	0.099
702.800	-6.292	0.100
702.900	3.762	0.100
703.000	-28.192	0.100
703.100	-6.576	0.100
703.200	-19.721	0.100
703.300	-24.601	0.100
703.400	-10.295	0.100
703.500	-7.117	0.100
703.600	-24.773	0.100
703.700	-16.603	0.100
703.800	-21.324	0.100
703.900	-16.803	0.100
704.000	-5.396	0.100
704.100	-15.994	0.100
704.200	-9.343	0.100
704.300	-28.611	0.100
704.400	-10.805	0.100
704.500	-11.935	0.100
704.600	-19.668	0.100
704.700	-16.916	0.100
704.800	-12.142	0.100
704.900	-13.890	0.100
705.000	-19.047	0.100
705.100	-20.856	0.100
705.200	-29.834	0.100
705.300	-15.256	0.100
705.400	-3.082	0.100
705.500	-24.776	0.100
705.600	-6.975	0.100
705.700	-22.353	0.100
705.800	-2.284	0.100
705.900	-26.606	0.100
706.000	-22.418	0.100
706.100	-7.989	0.100
706.200	-31.168	0.100
706.300	-12.763	0.100
706.400	-10.107	0.100
706.500	-4.603	0.100
706.600	-38.963	0.100
706.700	-16.854	0.100
706.800	-16.133	0.100
706.900	-11.001	0.099
707.000	-25.389	0.100
707.100	-11.091	0.100
707.200	-24.066	0.100
707.300	-6.404	0.100
707.400	-3.963	0.100
707.500	-36.346	0.100
707.600	-19.495	0.100
707.700	-15.101	0.100
707.800	-24.237	0.100
707.900	-29.203	0.100
708.000	-32.656	0.100
708.100	-22.464	0.100
708.200	-25.245	0.100
708.300	-13.546	0.099
708.400	-4.466	0.100
708.500	-20.589	0.100
708.600	-25.736	0.100
708.700	-27.929	0.100
708.800	-15.596	0.099
708.900	-32.424	0.100
709.000	-7.801	0.100
709.100	-8.456	0.100
709.200	-22.919	0.100
709.300	-13.329	0.100
709.400	-19.990	0.100
709.500	-30.389	0.100
709.600	-13.387	0.100
709.700	-6.244	0.100
709.800	-23.031	0.099
709.900	-20.420	0.100
710.000	-52.690	0.100
710.100	-32.174	0.100
710.200	-22.718	0.100
710.300	-11.271	0.100
710.400	-28.220	0.100
710.500	-18.919	0.099
710.600	-13.978	0.100
710.700	-28.895	0.099
710.800	-18.774	0.100
710.900	-11.972	0.100
711.000	-26.514	0.100
711.100	-30.247	0.100
711.200	-14.455	0.099
711.300	-10.741	0.100
711.400	-22.924	0.100
711.500	-33.526	0.100
711.600	-30.987	0.100
711.700	-29.125	0.100
711.800	-15.802	0.100
711.900	-29.865	0.100
712.000	-7.257	0.100
712.100	-35.265	0.100
712.200	-23.454	0.100
712.300	-29.814	0.100
712.400	-12.064	0.100
712.500	-38.352	0.100
712.600	-7.392	0.100
712.700	-5.902	0.100
712.800	-30.227	0.100
712.900	-18.540	0.100
713.000	-25.320	0.100
713.100	-13.845	0.100
713.200	-23.855	0.100
713.300	-18.268	0.100
713.400	-14.934	0.100
713.500	-22.084	0.100
713.600	-18.193	0.100
713.700	-36.608	0.100
713.800	-10.712	0.100
713.900	-16.853	0.100
714.000	-29.167	0.100
714.100	-14.013	0.100
714.200	-25.045	0.099
714.300	-23.078	0.100
714.400	-20.798	0.100
714.500	-12.023	0.100
714.600	-25.656	0.099
714.700	-45.782	0.100
714.800	-17.303	0.100
714.900	-5.079	0.100
715.000	-0.600	0.100
715.100	-32.820	0.099
715.200	-28.764	0.100
715.300	0.603	0.099
715.400	-3.222	0.100
715.500	-14.369	0.100
715.600	-42.317	0.100
715.700	-10.904	0.100
715.800	-20.778	0.100
715.900	-35.430	0.099
716.000	-30.675	0.100
716.100	-10.225	0.100
716.200	-19.882	0.100
716.300	-29.755	0.100
716.400	-25.523	0.099
716.500	-17.804	0.100
716.600	-23.739	0.100
716.700	-28.929	0.100
716.800	-18.062	0.100
716.900	-26.922	0.100
717.000	-33.667	0.100
717.100	-19.467	0.100
717.200	-33.872	0.100
717.300	-27.015	0.100
717.400	-24.075	0.099
717.500	-33.316	0.100
717.600	-10.521	0.099
717.700	-10.452	0.100
717.800	-11.604	0.100
717.900	-25.459	0.100
718.000	-41.413	0.100
718.100	-22.660	0.100
718.200	-10.503	0.099
718.300	-48.869	0.100
718.400	-23.443	0.099
718.500	-20.781	0.099
718.600	-42.999	0.100
718.700	8.537	0.100
718.800	-36.391	0.099
718.900	-20.969	0.100
719.000	-20.289	0.100
719.100	-16.102	0.099
719.200	-34.122	0.099
719.300	-30.470	0.099
719.400	-13.023	0.100
719.500	-21.039	0.100
719.600	-31.248	0.100
719.700	-33.450	0.100
719.800	-24.221	0.099
719.900	-16.986	0.100
720.000	-30.681	0.099
720.100	-20.554	0.100
720.200	-26.512	0.099
720.300	-20.478	0.099
720.400	-28.279	0.100
720.500	-11.073	0.100
720.600	-21.660	0.100
720.700	-17.143	0.100
720.800	-15.050	0.100
720.900	-17.810	0.100
721.000	-10.145	0.100
721.100	-29.754	0.100
721.200	-32.578	0.100
721.300	-19.016	0.100
721.400	-22.937	0.100
721.500	-29.206	0.099
721.600	-18.061	0.100
721.700	-33.325	0.100
721.800	-32.243	0.100
721.900	-43.381	0.100
722.000	-25.562	0.100
722.100	-21.376	0.100
722.200	-23.608	0.100
722.300	-23.832	0.099
722.400	-14.258	0.100
722.500	-25.287	0.100
722.600	-17.842	0.100
722.700	-27.869	0.100
722.800	-32.500	0.100
722.900	-32.741	0.100
723.000	-37.111	0.100
723.100	-25.433	0.100
723.200	-19.060	0.100
723.300	-20.904	0.100
723.400	-21.480	0.100
723.500	-14.809	0.100
723.600	-24.284	0.100
723.700	-25.795	0.100
723.800	-9.868	0.100
723.900	-23.525	0.099
724.000	-33.886	0.100
724.100	-22.173	0.100
724.200	-13.940	0.099
724.300	-38.830	0.099
724.400	-34.806	0.100
724.500	-29.102	0.099
724.600	-6.455	0.100
724.700	-36.244	0.100
724.800	-23.814	0.099
724.900	-60.958	0.099
725.000	-26.208	0.100
725.100	-8.759	0.099
725.200	-25.885	0.099
725.300	-18.897	0.100
725.400	-26.921	0.100
725.500	-22.446	0.100
725.600	-33.741	0.099
725.700	-23.638	0.100
725.800	-16.776	0.100
725.900	-28.897	0.100
726.000	-39.594	0.100
726.100	-19.073	0.100
726.200	-21.713	0.099
726.300	-37.920	0.100
726.400	-24.629	0.100
726.500	-20.704	0.100
726.600	-31.394	0.099
726.700	-20.845	0.100
726.800	-25.293	0.100
726.900	-2.595	0.100
727.000	-38.025	0.099
727.100	-14.855	0.100
727.200	-16.851	0.099
727.300	-38.370	0.100
727.400	-23.662	0.099
727.500	-11.932	0.100
727.600	-21.559	0.100
727.700	-23.877	0.099
727.800	-13.772	0.100
727.900	-21.459	0.100
728.000	-16.430	0.100
728.100	-42.443	0.099
728.200	-31.786	0.100
728.300	-24.174	0.100
728.400	-25.561	0.100
728.500	-45.269	0.100
728.600	-25.510	0.100
728.700	-12.906	0.100
728.800	-36.555	0.100
728.900	-15.307	0.100
729.000	-27.250	0.100
729.100	-21.214	0.099
729.200	-33.218	0.100
729.300	-14.970	0.100
729.400	-8.174	0.099
729.500	-12.841	0.100
729.600	-34.882	0.100
729.700	-24.890	0.099
729.800	-37.565	0.099
729.900	-22.793	0.100
730.000	-29.995	0.100
730.100	-16.396	0.100
730.200	-34.288	0.100
730.300	-23.438	0.100
730.400	-28.215	0.100
730.500	-26.452	0.100
730.600	-23.205	0.100
730.700	-15.670	0.100
730.800	-27.632	0.100
730.900	-22.974	0.100
731.000	-28.329	0.100
731.100	-25.190	0.100
731.200	-22.053	0.100
731.300	-19.125	0.100
731.400	-22.255	0.099
731.500	-22.907	0.100
731.600	-29.490	0.100
731.700	-39.492	0.100
731.800	-21.791	0.100
731.900	-30.619	0.100
732.000	-30.583	0.100
732.100	-23.313	0.100
732.200	-43.487	0.099
732.300	0.404	0.100
732.400	-27.220	0.100
732.500	-32.947	0.100
732.600	-16.383	0.100
732.700	-31.432	0.100
732.800	-37.149	0.100
732.900	-28.043	0.099
733.000	-41.657	0.100
733.100	-13.088	0.100
733.200	-2.911	0.100
733.300	-20.929	0.100
733.400	-20.997	0.100
733.500	-35.607	0.100
733.600	-29.018	0.100
733.700	-17.993	0.099
733.800	-23.545	0.100
733.900	-11.050	0.100
734.000	-26.424	0.100
734.100	-31.133	0.100
734.200	-33.631	0.100
734.300	-11.477	0.100
734.400	-13.772	0.100
734.500	-24.241	0.100
734.600	-15.589	0.100
734.700	-17.893	0.100
734.800	-27.802	0.100
734.900	-25.474	0.100
735.000	-18.035	0.100
735.100	-30.923	0.099
735.200	-34.200	0.100
735.300	-20.027	0.100
735.400	-31.310	0.100
735.500	-30.401	0.100
735.600	-26.030	0.100
735.700	-23.916	0.100
735.800	-29.269	0.100
735.900	-24.357	0.099
736.000	-30.311	0.100
736.100	-25.477	0.100
736.200	-20.036	0.100
736.300	-25.781	0.100
736.400	-24.498	0.100
736.500	-36.225	0.100
736.600	-16.551	0.100
736.700	-10.303	0.100
736.800	-34.769	0.100
736.900	-16.261	0.100
737.000	-14.804	0.100
737.100	-23.461	0.100
737.200	-22.595	0.100
737.300	-32.104	0.099
737.400	-18.835	0.100
737.500	-17.816	0.100
737.600	-26.105	0.100
737.700	-21.919	0.100
737.800	-32.271	0.100
737.900	-25.902	0.100
738.000	-24.519	0.099
738.100	-27.908	0.099
738.200	-20.769	0.100
738.300	-27.587	0.100
738.400	-22.767	0.100
738.500	-12.235	0.100
738.600	-13.678	0.100
738.700	-30.329	0.100
738.800	-41.562	0.099
738.900	-16.199	0.099
739.000	-19.739	0.100
739.100	-20.250	0.100
739.200	-24.780	0.099
739.300	-19.203	0.100
739.400	-27.158	0.100
739.500	-26.919	0.099
739.600	-21.912	0.099
739.700	-42.559	0.100
739.800	-42.602	0.099
739.900	-25.420	0.099
740.000	-9.613	0.100
740.100	-29.736	0.100
740.200	-25.340	0.099
740.300	-35.692	0.099
740.400	-19.435	0.100
740.500	-32.653	0.100
740.600	-17.143	0.100
740.700	-37.276	0.100
740.800	-20.823	0.100
740.900	-24.233	0.099
741.000	-17.385	0.100
741.100	-18.248	0.100
741.200	-24.866	0.100
741.300	-24.417	0.099
741.400	-25.215	0.100
741.500	-32.402	0.099
741.600	-33.053	0.099
741.700	-30.234	0.100
741.800	-13.920	0.099
741.900	2.719	0.100
742.000	-24.586	0.100
742.100	-34.741	0.100
742.200	-22.876	0.100
742.300	-20.593	0.100
742.400	-20.853	0.100
742.500	-23.734	0.100
742.600	-25.070	0.100
742.700	-19.109	0.100
742.800	-31.444	0.100
742.900	-22.293	0.100
743.000	-24.022	0.100
743.100	-32.756	0.100
743.200	-36.972	0.100
743.300	-28.644	0.100
743.400	-14.310	0.100
743.500	-17.857	0.100
743.600	-32.127	0.100
743.700	-24.739	0.100
743.800	-24.183	0.100
743.900	-34.676	0.100
744.000	-18.273	0.100
744.100	-5.308	0.100
744.200	-11.574	0.100
744.300	-41.200	0.100
744.400	-26.380	0.100
744.500	-18.533	0.099
744.600	-16.734	0.100
744.700	-30.153	0.100
744.800	-28.716	0.100
744.900	-41.002	0.100
745.000	-32.875	0.100
745.100	-19.969	0.100
745.200	-20.386	0.100
745.300	-40.650	0.100
745.400	-29.482	0.100
745.500	-32.645	0.100
745.600	-19.884	0.100
745.700	-21.719	0.099
745.800	-8.891	0.100
745.900	-30.212	0.100
746.000	-14.999	0.100
746.100	-28.901	0.100
746.200	-33.653	0.100
746.300	-14.166	0.100
746.400	-16.174	0.099
746.500	-19.354	0.100
746.600	-11.952	0.100
746.700	-23.044	0.100
746.800	-23.353	0.100
746.900	-22.585	0.100
747.000	-40.494	0.100
747.100	-37.974	0.099
747.200	-17.103	0.100
747.300	-22.029	0.100
747.400	-33.148	0.100
747.500	-8.612	0.100
747.600	-28.258	0.100
747.700	-16.139	0.100
747.800	-23.568	0.100
747.900	-9.138	0.100
748.000	-28.456	0.099
748.100	-17.614	0.100
748.200	-36.617	0.100
748.300	-21.334	0.100
748.400	-12.984	0.100
748.500	-29.106	0.100
748.600	-23.887	0.099
748.700	-11.820	0.100
748.800	-44.987	0.100
748.900	-19.211	0.100
749.000	-27.238	0.099
749.100	-24.308	0.100
749.200	-10.374	0.100
749.300	-26.747	0.100
749.400	-41.084	0.099
749.500	-31.621	0.100
749.600	-20.216	0.100
749.700	-13.680	0.100
749.800	-28.001	0.100
749.900	-19.810	0.100
750.000	-21.014	0.100
750.100	-20.707	0.100
750.200	-14.911	0.099
750.300	-27.306	0.100
750.400	-31.164	0.100
750.500	-10.714	0.100
750.600	-19.476	0.100
750.700	-22.827	0.099
750.800	-40.133	0.100
750.900	-26.850	0.100
751.000	-17.220	0.100
751.100	-19.701	0.100
751.200	-23.097	0.100
751.300	-38.774	0.100
751.400	-21.953	0.100
751.500	-16.198	0.100
751.600	-25.802	0.100
751.700	-20.941	0.100
751.800	-10.449	0.099
751.900	-25.635	0.100
752.000	-17.300	0.100
752.100	-21.661	0.100
752.200	-29.507	0.100
752.300	-24.545	0.100
752.400	-37.145	0.100
752.500	-13.997	0.100
752.600	-19.790	0.100
752.700	-13.052	0.100
752.800	-32.808	0.100
752.900	-24.020	0.100
753.000	-11.987	0.100
753.100	-13.280	0.099
753.200	-33.279	0.100
753.300	-14.905	0.100
753.400	-25.463	0.100
753.500	-19.239	0.099
753.600	-22.002	0.100
753.700	-50.134	0.100
753.800	-31.940	0.099
753.900	-10.970	0.099
754.000	-21.590	0.100
754.100	-33.529	0.100
754.200	-24.481	0.100
754.300	-30.272	0.100
754.400	-18.293	0.100
754.500	-30.660	0.100
754.600	-31.762	0.100
754.700	-15.012	0.100
754.800	-13.683	0.099
754.900	-18.443	0.100
755.000	-28.003	0.099
755.100	-27.684	0.099
755.200	-8.538	0.100
755.300	-17.921	0.100
755.400	-24.489	0.099
755.500	-20.357	0.099
755.600	-24.297	0.100
755.700	-25.257	0.100
755.800	-27.139	0.100
755.900	-21.515	0.100
756.000	-23.523	0.100
756.100	-19.354	0.100
756.200	-24.581	0.100
756.300	-8.415	0.100
756.400	-28.221	0.100
756.500	-27.978	0.099
756.600	-38.416	0.100
756.700	-26.750	0.100
756.800	-20.140	0.100
756.900	-11.158	0.100
757.000	-16.054	0.100
757.100	-21.987	0.100
757.200	-24.971	0.100
757.300	-26.155	0.100
757.400	-24.531	0.100
757.500	-16.018	0.100
757.600	-21.439	0.099
757.700	-27.956	0.100
757.800	-12.128	0.100
757.900	-31.960	0.100
758.000	-25.376	0.100
758.100	-26.703	0.100
758.200	-27.304	0.100
758.300	-20.573	0.100
758.400	-26.664	0.099
758.500	-23.339	0.100
758.600	-27.904	0.100
758.700	-15.468	0.100
758.800	-11.912	0.100
758.900	-22.789	0.100
759.000	-18.787	0.100
759.100	-23.069	0.100
759.200	-12.526	0.099
759.300	-13.571	0.100
759.400	-18.918	0.100
759.500	-29.990	0.100
759.600	-25.210	0.100
759.700	-11.500	0.099
759.800	-10.103	0.099
759.900	-48.106	0.099
760.000	-35.773	0.099
760.100	1.330	0.100
760.200	-29.462	0.100
760.300	-10.668	0.100
760.400	-25.074	0.100
760.500	-36.488	0.100
760.600	-32.617	0.100
760.700	-32.626	0.100
760.800	-5.084	0.099
760.900	-11.734	0.100
761.000	-36.435	0.100
761.100	-14.269	0.100
761.200	-12.572	0.100
761.300	-20.646	0.100
761.400	-27.626	0.100
761.500	-13.276	0.100
761.600	-12.862	0.100
761.700	-19.244	0.100
761.800	-25.973	0.100
761.900	-22.943	0.100
762.000	-29.114	0.100
762.100	-21.948	0.100
762.200	-26.965	0.099
762.300	-41.156	0.099
762.400	-5.855	0.100
762.500	-24.323	0.100
762.600	-22.886	0.100
762.700	-20.929	0.100
762.800	-8.234	0.099
762.900	-27.011	0.100
763.000	-16.580	0.099
763.100	-29.542	0.100
763.200	-28.566	0.100
763.300	-22.236	0.100
763.400	-16.380	0.100
763.500	-18.810	0.100
763.600	-19.274	0.100
763.700	-29.850	0.099
763.800	-15.117	0.100
763.900	-4.127	0.099
764.000	-38.485	0.100
764.100	-38.524	0.099
764.200	-18.695	0.100
764.300	-26.275	0.099
764.400	-40.763	0.099
764.500	-15.506	0.099
764.600	-18.758	0.100
764.700	-24.115	0.100
764.800	-24.100	0.100
764.900	-27.678	0.100
765.000	-27.278	0.099
765.100	-17.165	0.100
765.200	-13.693	0.099
765.300	-21.927	0.100
765.400	-24.545	0.100
765.500	-23.534	0.100
765.600	-35.853	0.100
765.700	-25.011	0.100
765.800	-24.894	0.100
765.900	-17.584	0.100
766.000	-14.491	0.100
766.100	-16.035	0.099
766.200	-14.466	0.100
766.300	-27.434	0.100
766.400	-21.018	0.100
766.500	-22.502	0.100
766.600	-28.503	0.100
766.700	-16.070	0.100
766.800	-21.855	0.100
766.900	-20.213	0.100
767.000	-26.064	0.099
767.100	-18.615	0.100
767.200	-14.983	0.100
767.300	-26.432	0.100
767.400	-24.615	0.100
767.500	-30.558	0.100
767.600	-24.149	0.100
767.700	-16.514	0.100
767.800	-25.909	0.099
767.900	-14.063	0.100
768.000	-26.442	0.100
768.100	-41.318	0.099
768.200	-26.456	0.099
768.300	-21.500	0.100
768.400	-27.637	0.099
768.500	-9.182	0.100
768.600	-23.551	0.100
768.700	-34.093	0.100
768.800	-7.869	0.099
768.900	-7.470	0.100
769.000	-18.073	0.100
769.100	-33.683	0.099
769.200	-31.987	0.099
769.300	-10.277	0.100
769.400	-15.135	0.099
769.500	-40.371	0.099
769.600	-6.718	0.100
769.700	-30.259	0.099
769.800	-10.820	0.100
769.900	-22.752	0.100
770.000	-34.298	0.100
770.100	-26.071	0.099
770.200	-10.776	0.100
770.300	-13.872	0.100
770.400	-22.512	0.100
770.500	-32.497	0.100
770.600	-27.987	0.099
770.700	-20.093	0.100
770.800	-18.146	0.100
770.900	-10.766	0.100
771.000	-7.938	0.100
771.100	-17.162	0.100
771.200	-27.564	0.100
771.300	-17.536	0.100
771.400	-15.213	0.100
771.500	-21.464	0.100
771.600	-35.671	0.100
771.700	-6.368	0.099
771.800	-13.359	0.100
771.900	-27.860	0.100
772.000	-26.607	0.100
772.100	-19.215	0.099
772.200	-23.470	0.100
772.300	-14.782	0.100
772.400	-23.921	0.100
772.500	-16.276	0.100
772.600	-12.369	0.099
772.700	-24.998	0.099
772.800	-10.212	0.100
772.900	-20.258	0.100
773.000	-5.528	0.100
773.100	-24.998	0.100
773.200	-32.947	0.100
773.300	-18.959	0.100
773.400	-21.484	0.100
773.500	-13.687	0.100
773.600	-14.556	0.100
773.700	-29.754	0.100
773.800	-26.475	0.100
773.900	-29.905	0.099
774.000	-24.409	0.099
774.100	-19.274	0.099
774.200	-22.308	0.099
774.300	-11.508	0.100
774.400	-17.406	0.100
774.500	-34.431	0.100
774.600	-8.390	0.100
774.700	-36.685	0.100
774.800	-15.064	0.100
774.900	-21.965	0.099
775.000	-13.765	0.100
775.100	-24.689	0.100
775.200	-26.473	0.100
775.300	-11.237	0.100
775.400	-15.888	0.100
775.500	-17.973	0.100
775.600	-24.613	0.100
775.700	-22.768	0.100
775.800	-5.906	0.100
775.900	-20.949	0.100
776.000	-21.960	0.100
776.100	-22.569	0.100
776.200	-22.948	0.099
776.300	-23.430	0.100
776.400	-2.009	0.100
776.500	-19.627	0.100
776.600	-22.371	0.100
776.700	-24.035	0.100
776.800	-35.627	0.100
776.900	-19.497	0.100
777.000	-18.595	0.099
777.100	-9.488	0.100
777.200	-37.039	0.100
777.300	-20.426	0.100
777.400	-23.752	0.100
777.500	-19.698	0.100
777.600	-11.222	0.099
777.700	2.041	0.100
777.800	-16.482	0.100
777.900	-51.115	0.099
778.000	-23.663	0.100
778.100	-20.184	0.099
778.200	-12.389	0.100
778.300	-15.284	0.100
778.400	-27.159	0.100
778.500	-20.820	0.100
778.600	-16.089	0.100
778.700	-23.655	0.100
778.800	-18.881	0.100
778.900	8.012	0.100
779.000	-20.417	0.100
779.100	-36.463	0.100
779.200	1.816	0.100
779.300	-32.834	0.100
779.400	-7.819	0.100
779.500	-12.190	0.100
779.600	-31.039	0.100
779.700	-9.689	0.100
779.800	-17.376	0.100
779.900	-16.697	0.100
780.000	-8.934	0.100
780.100	-8.495	0.100
780.200	-3.950	0.100
780.300	8.089	0.100
780.400	24.733	0.100
780.500	9.483	0.100
780.600	11.006	0.100
780.700	14.772	0.100
780.800	2.349	0.100
780.900	28.069	0.100
781.000	21.367	0.100
781.100	1.625	0.100
781.200	19.811	0.100
781.300	14.516	0.100
781.400	3.290	0.100
781.500	25.006	0.100
781.600	9.081	0.100
781.700	5.202	0.099
781.800	19.194	0.100
781.900	36.134	0.100
782.000	15.628	0.099
782.100	11.113	0.099
782.200	-0.521	0.100
782.300	1.116	0.100
782.400	32.156	0.100
782.500	24.336	0.100
782.600	28.628	0.100
782.700	17.378	0.100
782.800	8.928	0.099
782.900	24.630	0.100
783.000	7.255	0.099
783.100	9.604	0.100
783.200	21.678	0.100
783.300	27.249	0.100
783.400	6.578	0.100
783.500	26.755	0.100
783.600	9.678	0.100
783.700	7.677	0.099
783.800	9.462	0.100
783.900	9.478	0.100
784.000	5.488	0.100
784.100	8.569	0.100
784.200	11.760	0.100
784.300	21.972	0.100
784.400	-9.548	0.100
784.500	-1.201	0.100
784.600	25.062	0.100
784.700	28.635	0.100
784.800	31.063	0.100
784.900	5.843	0.100
785.000	8.178	0.100
785.100	8.322	0.100
785.200	8.425	0.099
785.300	-7.554	0.100
785.400	4.934	0.100
785.500	21.532	0.100
785.600	17.140	0.100
785.700	16.355	0.099
785.800	-4.250	0.100
785.900	6.493	0.100
786.000	12.337	0.100
786.100	30.856	0.100
786.200	0.187	0.100
786.300	13.620	0.100
786.400	13.646	0.100
786.500	8.846	0.100
786.600	1.982	0.099
786.700	5.297	0.100
786.800	10.965	0.099
786.900	4.546	0.100
787.000	16.355	0.100
787.100	2.003	0.100
787.200	8.910	0.100
787.300	7.852	0.100
787.400	14.396	0.100
787.500	14.020	0.099
787.600	18.573	0.100
787.700	18.823	0.100
787.800	3.566	0.100
787.900	16.977	0.100
788.000	4.680	0.100
788.100	33.102	0.100
788.200	21.356	0.100
788.300	18.339	0.100
788.400	6.361	0.100
788.500	18.503	0.100
788.600	7.386	0.100
788.700	25.505	0.100
788.800	1.615	0.100
788.900	21.529	0.100
789.000	28.030	0.100
789.100	22.567	0.100
789.200	28.401	0.100
789.300	28.194	0.100
789.400	35.295	0.100
789.500	21.248	0.100
789.600	23.035	0.100
789.700	12.874	0.099
789.800	30.089	0.100
789.900	2.977	0.100
790.000	18.797	0.100
790.100	17.647	0.100
790.200	23.524	0.100
790.300	32.807	0.100
790.400	26.934	0.100
790.500	18.561	0.100
790.600	26.023	0.100
790.700	33.940	0.100
790.800	24.454	0.100
790.900	16.797	0.099
791.000	15.875	0.100
791.100	19.995	0.100
791.200	42.877	0.100
791.300	32.674	0.100
791.400	27.561	0.100
791.500	9.262	0.100
791.600	33.784	0.100
791.700	36.644	0.100
791.800	33.770	0.099
791.900	28.400	0.100
792.000	30.804	0.100
792.100	8.510	0.100
792.200	27.533	0.100
792.300	32.867	0.100
792.400	16.501	0.100
792.500	33.649	0.099
792.600	23.877	0.099
792.700	49.049	0.099
792.800	23.562	0.100
792.900	40.036	0.099
793.000	13.067	0.099
793.100	41.179	0.100
793.200	11.452	0.100
793.300	18.911	0.099
793.400	42.116	0.100
793.500	47.960	0.099
793.600	23.914	0.100
793.700	33.118	0.100
793.800	28.931	0.100
793.900	34.802	0.100
794.000	42.786	0.099
794.100	18.717	0.100
794.200	19.530	0.099
794.300	40.677	0.099
794.400	49.837	0.100
794.500	28.069	0.100
794.600	8.093	0.100
794.700	44.123	0.099
794.800	23.318	0.099
794.900	40.335	0.099
795.000	38.637	0.100
795.100	35.868	0.100
795.200	30.860	0.099
795.300	36.316	0.099
795.400	35.304	0.100
795.500	35.708	0.100
795.600	20.682	0.099
795.700	44.710	0.100
795.800	37.730	0.100
795.900	53.387	0.100
796.000	41.426	0.100
796.100	55.979	0.100
796.200	48.049	0.100
796.300	44.877	0.100
796.400	42.196	0.100
796.500	23.260	0.100
796.600	43.031	0.099
796.700	32.131	0.100
796.800	28.581	0.100
796.900	41.909	0.100
797.000	33.374	0.100
797.100	30.615	0.100
797.200	53.854	0.099
797.300	37.182	0.100
797.400	39.163	0.100
797.500	38.791	0.099
797.600	58.961	0.100
797.700	35.244	0.099
797.800	48.820	0.100
797.900	47.586	0.099
798.000	32.748	0.099
798.100	40.911	0.100
798.200	49.436	0.100
798.300	42.543	0.100
798.400	36.406	0.100
798.500	35.236	0.099
798.600	28.683	0.100
798.700	37.662	0.100
798.800	44.113	0.100
798.900	50.418	0.100
799.000	48.158	0.099
799.100	38.337	0.100
799.200	42.597	0.099
799.300	34.065	0.100
799.400	52.369	0.099
799.500	26.440	0.100
799.600	43.502	0.100
799.700	30.678	0.100
799.800	41.029	0.100
799.900	38.806	0.099
800.000	43.639	0.100
