time /s	I /nA	E /V
0.100	-32.350	0.100
0.200	-4.219	0.100
0.300	-10.767	0.100
0.400	-37.145	0.100
0.500	-26.794	0.100
0.600	-8.834	0.100
0.700	-12.064	0.100
0.800	-18.543	0.100
0.900	-31.124	0.100
1.000	-14.987	0.100
1.100	-20.033	0.100
1.200	-20.186	0.100
1.300	-8.365	0.100
1.400	-24.846	0.100
1.500	-15.522	0.100
1.600	-15.203	0.100
1.700	-16.294	0.100
1.800	-17.875	0.100
1.900	-16.546	0.100
2.000	-40.151	0.100
2.100	-34.753	0.100
2.200	-3.481	0.100
2.300	-15.587	0.100
2.400	-30.916	0.100
2.500	-20.701	0.100
2.600	-33.829	0.100
2.700	-18.656	0.100
2.800	-40.818	0.100
2.900	-11.559	0.100
3.000	-29.923	0.100
3.100	-19.908	0.100
3.200	-15.672	0.100
3.300	-22.472	0.100
3.400	-27.911	0.100
3.500	-23.166	0.100
3.600	-20.421	0.100
3.700	-9.781	0.100
3.800	-23.755	0.100
3.900	-23.941	0.100
4.000	-29.167	0.100
4.100	-7.866	0.100
4.200	-5.700	0.100
4.300	-4.228	0.100
4.400	-19.658	0.100
4.500	-25.423	0.100
4.600	-27.590	0.100
4.700	-18.272	0.100
4.800	-7.092	0.100
4.900	-29.793	0.100
5.000	-34.833	0.100
5.100	-29.033	0.100
5.200	-25.405	0.100
5.300	-19.253	0.100
5.400	-14.209	0.100
5.500	-31.380	0.100
5.600	-7.796	0.100
5.700	-16.187	0.100
5.800	-16.742	0.100
5.900	-30.361	0.100
6.000	-21.407	0.100
6.100	-22.417	0.100
6.200	-12.269	0.100
6.300	-36.832	0.100
6.400	-26.061	0.100
6.500	-21.867	0.100
6.600	-30.296	0.100
6.700	-7.152	0.100
6.800	-22.959	0.100
6.900	-22.322	0.100
7.000	-15.478	0.100
7.100	-29.089	0.100
7.200	-8.550	0.100
7.300	-6.574	0.100
7.400	-25.619	0.100
7.500	-26.942	0.100
7.600	-14.851	0.100
7.700	-24.110	0.100
7.800	-31.558	0.100
7.900	-15.118	0.100
8.000	-28.881	0.100
8.100	-32.934	0.100
8.200	-30.894	0.100
8.300	-4.906	0.100
8.400	-22.817	0.100
8.500	-17.845	0.100
8.600	-31.126	0.100
8.700	-24.159	0.100
8.800	-14.905	0.100
8.900	-26.233	0.100
9.000	-20.247	0.100
9.100	-31.907	0.100
9.200	-10.068	0.100
9.300	-27.587	0.100
9.400	-40.436	0.100
9.500	-8.822	0.100
9.600	-20.853	0.100
9.700	-21.931	0.100
9.800	-20.496	0.100
9.900	-23.788	0.100
10.000	-32.815	0.100
10.100	-11.896	0.100
10.200	-23.266	0.100
10.300	-29.009	0.100
10.400	-15.848	0.100
10.500	-32.746	0.100
10.600	-18.720	0.100
10.700	-24.243	0.100
10.800	-16.963	0.100
10.900	-13.815	0.100
11.000	-15.148	0.100
11.100	-36.646	0.100
11.200	-26.165	0.100
11.300	-9.268	0.100
11.400	-21.821	0.100
11.500	-10.865	0.100
11.600	-13.429	0.100
11.700	-23.708	0.100
11.800	-26.855	0.100
11.900	-12.258	0.100
12.000	-7.575	0.100
12.100	-27.795	0.100
12.200	-25.807	0.100
12.300	-21.294	0.100
12.400	-17.794	0.100
12.500	-25.163	0.100
12.600	-50.353	0.100
12.700	-16.880	0.100
12.800	-4.723	0.100
12.900	-19.278	0.100
13.000	-20.154	0.100
13.100	-29.193	0.100
13.200	-26.606	0.100
13.300	-21.776	0.100
13.400	-31.987	0.100
13.500	-20.114	0.100
13.600	-15.458	0.100
13.700	-22.427	0.100
13.800	-13.378	0.100
13.900	-29.003	0.100
14.000	-16.411	0.100
14.100	-27.396	0.100
14.200	-18.549	0.100
14.300	-12.484	0.100
14.400	-25.669	0.100
14.500	-19.875	0.100
14.600	-19.477	0.100
14.700	-30.878	0.100
14.800	-14.005	0.100
14.900	-20.353	0.100
15.000	-17.373	0.100
15.100	-18.426	0.100
15.200	-22.792	0.100
15.300	-15.168	0.100
15.400	-26.636	0.100
15.500	-19.103	0.100
15.600	-20.379	0.100
15.700	-31.260	0.100
15.800	-23.854	0.100
15.900	-28.956	0.100
16.000	-11.842	0.100
16.100	-10.328	0.100
16.200	-20.220	0.100
16.300	-30.666	0.100
16.400	-18.658	0.100
16.500	-22.591	0.100
16.600	-4.994	0.100
16.700	-16.118	0.100
16.800	-22.278	0.100
16.900	-31.236	0.100
17.000	-22.623	0.100
17.100	-36.478	0.100
17.200	-11.553	0.100
17.300	-20.314	0.100
17.400	-14.673	0.100
17.500	-5.872	0.100
17.600	-25.677	0.100
17.700	-14.422	0.100
17.800	-6.731	0.100
17.900	-35.096	0.100
18.000	-23.924	0.100
18.100	-13.640	0.100
18.200	-31.609	0.100
18.300	-15.288	0.100
18.400	-25.331	0.100
18.500	-14.443	0.100
18.600	-29.615	0.100
18.700	-9.796	0.100
18.800	-28.471	0.100
18.900	-16.534	0.100
19.000	-25.757	0.100
19.100	-21.881	0.100
19.200	-16.707	0.100
19.300	-6.129	0.100
19.400	-26.902	0.100
19.500	-25.097	0.100
19.600	-13.596	0.100
19.700	-21.374	0.100
19.800	-24.049	0.100
19.900	-10.486	0.100
20.000	-25.449	0.100
20.100	-5.614	0.100
20.200	-18.755	0.100
20.300	-39.882	0.100
20.400	-23.408	0.100
20.500	-28.430	0.100
20.600	-24.191	0.100
20.700	-18.896	0.100
20.800	-18.490	0.100
20.900	-20.352	0.100
21.000	-30.866	0.100
21.100	-12.897	0.100
21.200	-22.740	0.100
21.300	-12.606	0.100
21.400	-43.723	0.100
21.500	-14.796	0.100
21.600	-19.441	0.100
21.700	-21.441	0.100
21.800	-18.500	0.100
21.900	-20.361	0.100
22.000	-19.306	0.100
22.100	-13.294	0.100
22.200	-17.124	0.100
22.300	-20.271	0.100
22.400	-20.664	0.100
22.500	-22.859	0.100
22.600	-30.323	0.100
22.700	-2.777	0.100
22.800	-8.098	0.100
22.900	-23.660	0.100
23.000	-21.183	0.100
23.100	-2.337	0.100
23.200	-39.238	0.100
23.300	-29.634	0.100
23.400	-26.702	0.100
23.500	-30.334	0.100
23.600	-20.049	0.100
23.700	-26.560	0.100
23.800	-21.618	0.100
23.900	-31.851	0.100
24.000	-8.297	0.100
24.100	-21.025	0.100
24.200	-19.468	0.100
24.300	-16.958	0.100
24.400	-13.831	0.100
24.500	-5.826	0.100
24.600	-22.636	0.100
24.700	-17.090	0.100
24.800	-3.603	0.100
24.900	-22.928	0.100
25.000	-15.953	0.100
25.100	-13.220	0.100
25.200	-35.501	0.100
25.300	-12.727	0.100
25.400	-14.809	0.100
25.500	-17.649	0.100
25.600	-29.106	0.100
25.700	-17.464	0.100
25.800	-4.301	0.100
25.900	-31.885	0.100
26.000	-16.528	0.100
26.100	-12.825	0.100
26.200	-26.228	0.100
26.300	-21.579	0.100
26.400	-17.090	0.100
26.500	-22.908	0.100
26.600	-19.970	0.100
26.700	-8.585	0.100
26.800	-15.985	0.100
26.900	-25.274	0.100
27.000	-27.881	0.100
27.100	-25.050	0.100
27.200	-12.486	0.100
27.300	-20.939	0.100
27.400	-25.930	0.100
27.500	-26.789	0.100
27.600	-10.886	0.100
27.700	-15.415	0.100
27.800	-11.953	0.100
27.900	-17.933	0.100
28.000	-2.115	0.100
28.100	-22.207	0.100
28.200	-13.830	0.100
28.300	-17.712	0.100
28.400	-28.060	0.100
28.500	-26.925	0.100
28.600	-24.069	0.100
28.700	-18.920	0.100
28.800	-16.498	0.100
28.900	-21.242	0.100
29.000	-30.803	0.100
29.100	-19.357	0.100
29.200	-12.972	0.100
29.300	-14.946	0.100
29.400	-26.170	0.100
29.500	-38.443	0.100
29.600	-34.470	0.100
29.700	-7.638	0.100
29.800	-2.665	0.100
29.900	2.842	0.100
30.000	16.500	0.100
30.100	1.431	0.100
30.200	10.540	0.100
30.300	36.157	0.100
30.400	30.201	0.100
30.500	19.519	0.100
30.600	41.089	0.100
30.700	32.303	0.100
30.800	29.670	0.100
30.900	37.715	0.100
31.000	23.840	0.100
31.100	37.357	0.100
31.200	20.008	0.100
31.300	41.327	0.100
31.400	40.395	0.100
31.500	22.294	0.100
31.600	27.851	0.100
31.700	29.267	0.100
31.800	24.249	0.100
31.900	22.008	0.100
32.000	37.712	0.100
32.100	19.820	0.100
32.200	21.993	0.100
32.300	23.155	0.100
32.400	40.410	0.100
32.500	17.942	0.100
32.600	16.857	0.100
32.700	14.904	0.100
32.800	21.178	0.100
32.900	26.829	0.100
33.000	14.147	0.100
33.100	20.758	0.100
33.200	11.344	0.100
33.300	34.641	0.100
33.400	17.664	0.100
33.500	20.442	0.100
33.600	23.878	0.100
33.700	24.994	0.100
33.800	20.744	0.100
33.900	11.699	0.100
34.000	32.338	0.100
34.100	26.636	0.100
34.200	18.601	0.100
34.300	30.185	0.100
34.400	28.875	0.100
34.500	32.959	0.100
34.600	12.065	0.100
34.700	26.287	0.100
34.800	24.276	0.100
34.900	35.892	0.100
35.000	26.450	0.100
35.100	36.122	0.100
35.200	17.960	0.100
35.300	38.339	0.100
35.400	21.343	0.100
35.500	19.635	0.100
35.600	1.225	0.100
35.700	33.902	0.100
35.800	38.686	0.100
35.900	35.845	0.100
36.000	21.499	0.100
36.100	33.415	0.100
36.200	30.431	0.100
36.300	32.574	0.100
36.400	15.972	0.100
36.500	29.944	0.100
36.600	26.369	0.100
36.700	39.808	0.100
36.800	38.155	0.100
36.900	23.194	0.100
37.000	28.321	0.100
37.100	21.219	0.100
37.200	16.024	0.100
37.300	40.351	0.100
37.400	26.782	0.100
37.500	38.344	0.100
37.600	38.399	0.100
37.700	22.842	0.100
37.800	30.995	0.100
37.900	45.064	0.100
38.000	31.915	0.100
38.100	35.612	0.100
38.200	31.565	0.100
38.300	29.656	0.100
38.400	18.975	0.100
38.500	33.755	0.100
38.600	26.994	0.100
38.700	30.167	0.100
38.800	30.390	0.100
38.900	39.582	0.100
39.000	42.868	0.100
39.100	36.918	0.100
39.200	16.798	0.100
39.300	45.936	0.100
39.400	40.765	0.100
39.500	39.082	0.100
39.600	43.797	0.100
39.700	31.308	0.100
39.800	34.450	0.100
39.900	43.888	0.100
40.000	22.621	0.100
40.100	58.902	0.100
40.200	37.133	0.100
40.300	31.111	0.100
40.400	24.989	0.100
40.500	28.171	0.100
40.600	48.859	0.100
40.700	43.748	0.100
40.800	30.045	0.100
40.900	57.283	0.100
41.000	35.345	0.100
41.100	54.269	0.100
41.200	46.260	0.100
41.300	33.046	0.100
41.400	30.694	0.100
41.500	34.554	0.100
41.600	62.132	0.100
41.700	25.857	0.100
41.800	42.201	0.100
41.900	34.264	0.100
42.000	42.145	0.100
42.100	35.542	0.100
42.200	42.407	0.100
42.300	48.145	0.100
42.400	37.126	0.100
42.500	30.261	0.100
42.600	42.706	0.100
42.700	45.434	0.100
42.800	48.203	0.100
42.900	27.683	0.100
43.000	36.112	0.100
43.100	39.588	0.100
43.200	44.761	0.100
43.300	45.758	0.100
43.400	32.180	0.100
43.500	38.481	0.100
43.600	53.330	0.100
43.700	40.709	0.100
43.800	36.532	0.100
43.900	35.384	0.100
44.000	47.566	0.100
44.100	64.695	0.100
44.200	43.937	0.100
44.300	45.291	0.100
44.400	39.614	0.100
44.500	43.712	0.100
44.600	49.082	0.100
44.700	51.251	0.100
44.800	30.694	0.100
44.900	29.810	0.100
45.000	33.520	0.100
45.100	42.256	0.100
45.200	48.440	0.100
45.300	44.762	0.100
45.400	47.519	0.100
45.500	47.934	0.100
45.600	34.525	0.100
45.700	39.810	0.100
45.800	45.760	0.100
45.900	44.600	0.100
46.000	58.842	0.100
46.100	42.957	0.099
46.200	31.181	0.099
46.300	33.677	0.099
46.400	55.253	0.099
46.500	68.650	0.099
46.600	42.431	0.099
46.700	53.713	0.099
46.800	52.174	0.099
46.900	35.807	0.099
47.000	36.731	0.099
47.100	49.480	0.099
47.200	51.481	0.099
47.300	48.570	0.099
47.400	55.033	0.099
47.500	50.516	0.099
47.600	44.527	0.099
47.700	50.512	0.099
47.800	49.974	0.099
47.900	49.252	0.099
48.000	21.721	0.099
48.100	49.337	0.099
48.200	59.030	0.099
48.300	54.690	0.099
48.400	50.785	0.099
48.500	47.519	0.099
48.600	42.446	0.099
48.700	58.292	0.099
48.800	44.845	0.099
48.900	42.638	0.099
49.000	49.376	0.099
49.100	57.259	0.099
49.200	36.934	0.099
49.300	39.601	0.099
49.400	50.008	0.099
49.500	52.113	0.099
49.600	38.358	0.099
49.700	53.283	0.099
49.800	55.915	0.099
49.900	62.840	0.099
50.000	67.336	0.099
50.100	36.791	0.099
50.200	39.310	0.099
50.300	57.319	0.099
50.400	50.871	0.099
50.500	53.947	0.099
50.600	53.813	0.099
50.700	69.513	0.099
50.800	62.604	0.099
50.900	53.477	0.099
51.000	38.396	0.099
51.100	48.443	0.099
51.200	64.129	0.099
51.300	58.854	0.099
51.400	58.605	0.099
51.500	61.798	0.099
51.600	46.105	0.099
51.700	50.308	0.099
51.800	45.593	0.099
51.900	67.626	0.099
52.000	45.658	0.099
52.100	63.981	0.099
52.200	63.986	0.099
52.300	48.519	0.099
52.400	55.758	0.099
52.500	49.191	0.099
52.600	60.241	0.099
52.700	54.930	0.099
52.800	44.165	0.099
52.900	65.068	0.099
53.000	53.895	0.099
53.100	71.354	0.099
53.200	63.098	0.099
53.300	39.249	0.099
53.400	63.407	0.099
53.500	61.230	0.099
53.600	55.179	0.099
53.700	61.048	0.099
53.800	52.216	0.099
53.900	36.189	0.099
54.000	70.067	0.099
54.100	52.136	0.099
54.200	45.405	0.099
54.300	74.490	0.099
54.400	62.504	0.099
54.500	63.941	0.099
54.600	40.098	0.099
54.700	57.193	0.099
54.800	63.508	0.099
54.900	47.385	0.099
55.000	50.995	0.099
55.100	55.642	0.099
55.200	63.577	0.099
55.300	60.072	0.099
55.400	60.469	0.099
55.500	75.479	0.099
55.600	58.756	0.099
55.700	53.289	0.099
55.800	65.195	0.099
55.900	50.800	0.099
56.000	49.460	0.099
56.100	45.931	0.099
56.200	68.062	0.099
56.300	65.921	0.099
56.400	54.143	0.099
56.500	81.371	0.099
56.600	46.563	0.099
56.700	70.829	0.099
56.800	54.850	0.099
56.900	46.066	0.099
57.000	56.061	0.099
57.100	60.987	0.099
57.200	67.454	0.099
57.300	70.702	0.099
57.400	46.796	0.099
57.500	35.969	0.099
57.600	66.749	0.099
57.700	55.133	0.099
57.800	65.850	0.099
57.900	69.231	0.099
58.000	58.644	0.099
58.100	67.253	0.099
58.200	53.314	0.099
58.300	65.450	0.099
58.400	52.150	0.099
58.500	56.747	0.099
58.600	59.398	0.099
58.700	71.187	0.099
58.800	62.560	0.099
58.900	52.071	0.099
59.000	73.958	0.099
59.100	62.169	0.099
59.200	62.008	0.099
59.300	61.278	0.099
59.400	65.357	0.099
59.500	66.968	0.099
59.600	79.326	0.099
59.700	73.297	0.099
59.800	43.817	0.099
59.900	77.812	0.099
60.000	71.755	0.099
60.100	68.203	0.099
60.200	60.424	0.099
60.300	66.647	0.099
60.400	60.973	0.099
60.500	72.088	0.099
60.600	61.263	0.099
60.700	80.965	0.099
60.800	62.428	0.099
60.900	58.558	0.099
61.000	52.491	0.099
61.100	65.254	0.099
61.200	66.711	0.099
61.300	56.095	0.099
61.400	77.820	0.099
61.500	67.833	0.099
61.600	47.250	0.099
61.700	61.975	0.099
61.800	72.108	0.099
61.900	81.184	0.099
62.000	60.824	0.099
62.100	55.849	0.099
62.200	77.585	0.099
62.300	67.561	0.099
62.400	77.460	0.099
62.500	46.119	0.099
62.600	75.993	0.099
62.700	76.584	0.099
62.800	59.140	0.099
62.900	61.742	0.099
63.000	73.556	0.099
63.100	77.432	0.099
63.200	68.967	0.099
63.300	81.279	0.099
63.400	65.534	0.099
63.500	74.208	0.099
63.600	72.157	0.099
63.700	74.338	0.099
63.800	82.186	0.099
63.900	62.323	0.099
64.000	64.392	0.099
64.100	63.968	0.099
64.200	69.631	0.099
64.300	59.332	0.099
64.400	74.783	0.099
64.500	69.018	0.099
64.600	80.389	0.099
64.700	74.561	0.099
64.800	66.885	0.099
64.900	71.539	0.099
65.000	74.732	0.099
65.100	76.083	0.099
65.200	76.672	0.099
65.300	64.891	0.099
65.400	85.451	0.099
65.500	71.857	0.099
65.600	84.407	0.099
65.700	72.468	0.099
65.800	68.980	0.100
65.900	86.322	0.099
66.000	67.394	0.099
66.100	67.900	0.100
66.200	62.646	0.100
66.300	94.604	0.100
66.400	69.682	0.100
66.500	73.499	0.100
66.600	73.487	0.100
66.700	70.806	0.100
66.800	87.782	0.100
66.900	65.432	0.100
67.000	55.023	0.100
67.100	85.275	0.100
67.200	78.857	0.100
67.300	75.391	0.100
67.400	65.612	0.100
67.500	87.101	0.099
67.600	77.137	0.100
67.700	66.431	0.100
67.800	80.827	0.099
67.900	78.363	0.100
68.000	74.664	0.100
68.100	71.557	0.100
68.200	77.090	0.100
68.300	59.966	0.100
68.400	88.383	0.099
68.500	86.549	0.099
68.600	63.894	0.099
68.700	75.091	0.099
68.800	79.200	0.099
68.900	78.759	0.099
69.000	77.211	0.099
69.100	81.420	0.100
69.200	81.657	0.100
69.300	75.873	0.099
69.400	72.360	0.100
69.500	65.499	0.099
69.600	77.501	0.099
69.700	84.868	0.100
69.800	79.002	0.100
69.900	74.383	0.100
70.000	62.503	0.100
70.100	71.697	0.099
70.200	87.086	0.100
70.300	73.882	0.099
70.400	79.558	0.099
70.500	69.984	0.100
70.600	63.107	0.099
70.700	90.273	0.099
70.800	69.789	0.099
70.900	72.679	0.100
71.000	72.064	0.100
71.100	86.932	0.099
71.200	72.436	0.100
71.300	85.261	0.100
71.400	81.888	0.099
71.500	71.309	0.100
71.600	78.071	0.099
71.700	82.570	0.099
71.800	82.326	0.100
71.900	77.001	0.100
72.000	79.417	0.100
72.100	81.644	0.099
72.200	72.985	0.099
72.300	70.708	0.099
72.400	76.572	0.099
72.500	82.755	0.100
72.600	76.932	0.099
72.700	62.706	0.100
72.800	79.223	0.100
72.900	81.113	0.100
73.000	73.178	0.100
73.100	83.621	0.099
73.200	62.966	0.100
73.300	82.067	0.100
73.400	89.876	0.100
73.500	69.182	0.099
73.600	93.487	0.099
73.700	69.577	0.099
73.800	74.042	0.099
73.900	70.723	0.099
74.000	79.715	0.100
74.100	86.356	0.099
74.200	66.674	0.100
74.300	70.083	0.099
74.400	65.437	0.099
74.500	70.918	0.100
74.600	69.252	0.099
74.700	85.777	0.100
74.800	70.531	0.099
74.900	87.895	0.100
75.000	73.827	0.099
75.100	81.813	0.099
75.200	75.496	0.099
75.300	65.120	0.099
75.400	80.707	0.099
75.500	69.999	0.099
75.600	63.963	0.099
75.700	77.187	0.099
75.800	93.046	0.099
75.900	87.342	0.100
76.000	78.064	0.099
76.100	72.790	0.100
76.200	84.068	0.100
76.300	69.647	0.100
76.400	68.036	0.100
76.500	80.148	0.100
76.600	78.361	0.099
76.700	93.713	0.099
76.800	70.833	0.099
76.900	88.451	0.099
77.000	77.937	0.100
77.100	67.222	0.099
77.200	82.103	0.099
77.300	70.390	0.099
77.400	72.442	0.099
77.500	90.284	0.100
77.600	70.694	0.100
77.700	80.973	0.099
77.800	80.605	0.099
77.900	86.950	0.099
78.000	82.109	0.099
78.100	84.281	0.100
78.200	86.033	0.099
78.300	72.548	0.100
78.400	75.524	0.099
78.500	70.418	0.099
78.600	79.348	0.099
78.700	80.069	0.099
78.800	70.527	0.099
78.900	69.646	0.100
79.000	99.471	0.099
79.100	81.589	0.099
79.200	67.955	0.099
79.300	82.961	0.099
79.400	78.587	0.099
79.500	74.686	0.099
79.600	80.263	0.100
79.700	76.654	0.100
79.800	85.575	0.099
79.900	80.941	0.100
80.000	73.589	0.099
80.100	89.821	0.099
80.200	96.639	0.099
80.300	68.799	0.099
80.400	83.996	0.099
80.500	75.437	0.099
80.600	77.829	0.099
80.700	77.442	0.100
80.800	83.716	0.099
80.900	81.790	0.100
81.000	71.142	0.100
81.100	84.721	0.100
81.200	81.009	0.100
81.300	89.668	0.100
81.400	74.160	0.100
81.500	91.527	0.100
81.600	79.848	0.100
81.700	61.250	0.100
81.800	71.156	0.100
81.900	76.922	0.099
82.000	75.299	0.100
82.100	81.255	0.099
82.200	77.808	0.099
82.300	80.660	0.099
82.400	75.249	0.100
82.500	74.466	0.099
82.600	83.381	0.099
82.700	60.804	0.099
82.800	70.370	0.099
82.900	75.672	0.099
83.000	95.180	0.100
83.100	63.940	0.099
83.200	67.131	0.099
83.300	74.725	0.099
83.400	74.295	0.100
83.500	67.895	0.099
83.600	86.044	0.100
83.700	82.918	0.100
83.800	69.944	0.100
83.900	94.716	0.100
84.000	76.299	0.100
84.100	82.983	0.100
84.200	79.198	0.099
84.300	75.197	0.100
84.400	81.800	0.100
84.500	73.842	0.100
84.600	79.382	0.099
84.700	86.475	0.099
84.800	61.337	0.100
84.900	94.178	0.100
85.000	71.637	0.099
85.100	96.059	0.100
85.200	86.872	0.100
85.300	67.762	0.100
85.400	82.138	0.099
85.500	71.875	0.100
85.600	78.937	0.099
85.700	68.556	0.100
85.800	65.735	0.099
85.900	94.751	0.100
86.000	78.173	0.100
86.100	60.706	0.099
86.200	75.393	0.099
86.300	85.343	0.099
86.400	75.367	0.100
86.500	66.788	0.099
86.600	87.877	0.100
86.700	91.177	0.100
86.800	76.382	0.100
86.900	92.392	0.100
87.000	93.162	0.100
87.100	71.946	0.100
87.200	81.537	0.100
87.300	59.938	0.100
87.400	69.353	0.100
87.500	92.588	0.099
87.600	91.420	0.100
87.700	71.695	0.100
87.800	70.957	0.100
87.900	72.986	0.100
88.000	71.471	0.100
88.100	77.873	0.099
88.200	80.485	0.099
88.300	75.268	0.100
88.400	80.693	0.100
88.500	72.713	0.100
88.600	83.670	0.100
88.700	64.440	0.099
88.800	78.573	0.100
88.900	66.754	0.100
89.000	69.906	0.099
89.100	74.181	0.099
89.200	77.368	0.099
89.300	88.910	0.100
89.400	83.222	0.100
89.500	70.292	0.100
89.600	61.872	0.100
89.700	59.021	0.100
89.800	70.814	0.100
89.900	56.509	0.099
90.000	60.595	0.099
90.100	74.149	0.100
90.200	39.573	0.100
90.300	46.120	0.100
90.400	33.877	0.100
90.500	6.841	0.100
90.600	1.027	0.100
90.700	1.880	0.099
90.800	-6.714	0.100
90.900	-2.106	0.099
91.000	-22.594	0.099
91.100	-34.581	0.099
91.200	-24.695	0.099
91.300	-33.801	0.099
91.400	-36.619	0.099
91.500	-51.996	0.100
91.600	-41.608	0.099
91.700	-34.884	0.099
91.800	-59.547	0.100
91.900	-54.655	0.099
92.000	-54.472	0.100
92.100	-56.945	0.099
92.200	-50.759	0.100
92.300	-59.960	0.099
92.400	-53.028	0.100
92.500	-44.729	0.100
92.600	-53.141	0.099
92.700	-61.247	0.099
92.800	-57.603	0.099
92.900	-57.520	0.099
93.000	-43.368	0.099
93.100	-68.057	0.099
93.200	-58.195	0.099
93.300	-50.332	0.099
93.400	-45.440	0.099
93.500	-62.929	0.099
93.600	-69.812	0.099
93.700	-48.139	0.099
93.800	-70.800	0.099
93.900	-43.898	0.100
94.000	-50.372	0.099
94.100	-53.879	0.099
94.200	-57.913	0.100
94.300	-48.601	0.100
94.400	-67.396	0.099
94.500	-55.770	0.099
94.600	-40.557	0.100
94.700	-43.245	0.099
94.800	-42.879	0.099
94.900	-57.176	0.100
95.000	-44.012	0.099
95.100	-41.701	0.100
95.200	-48.070	0.099
95.300	-34.328	0.099
95.400	-53.144	0.100
95.500	-39.047	0.100
95.600	-48.353	0.099
95.700	-36.092	0.099
95.800	-45.260	0.100
95.900	-41.780	0.099
96.000	-46.394	0.099
96.100	-39.678	0.099
96.200	-46.690	0.099
96.300	-53.290	0.099
96.400	-38.070	0.099
96.500	-46.594	0.099
96.600	-30.153	0.099
96.700	-49.913	0.099
96.800	-38.834	0.099
96.900	-43.769	0.099
97.000	-44.879	0.099
97.100	-48.309	0.099
97.200	-39.759	0.099
97.300	-48.763	0.099
97.400	-29.361	0.100
97.500	-33.178	0.100
97.600	-27.774	0.100
97.700	-48.781	0.099
97.800	-27.667	0.100
97.900	-34.608	0.099
98.000	-49.902	0.100
98.100	-24.923	0.100
98.200	-29.046	0.099
98.300	-51.569	0.100
98.400	-41.990	0.100
98.500	-45.536	0.100
98.600	-38.609	0.099
98.700	-46.516	0.100
98.800	-48.469	0.099
98.900	-49.065	0.099
99.000	-35.185	0.099
99.100	-19.506	0.099
99.200	-58.877	0.099
99.300	-58.767	0.100
99.400	-50.085	0.099
99.500	-31.552	0.099
99.600	-43.020	0.099
99.700	-41.208	0.099
99.800	-37.723	0.099
99.900	-46.690	0.099
100.000	-27.258	0.099
100.100	-48.460	0.099
100.200	-39.682	0.099
100.300	-44.714	0.099
100.400	-43.997	0.099
100.500	-36.453	0.099
100.600	-58.632	0.099
100.700	-53.343	0.100
100.800	-40.602	0.099
100.900	-39.585	0.099
101.000	-41.821	0.099
101.100	-37.986	0.099
101.200	-33.023	0.099
101.300	-32.168	0.099
101.400	-59.435	0.099
101.500	-47.360	0.099
101.600	-42.479	0.099
101.700	-37.707	0.099
101.800	-40.601	0.099
101.900	-38.362	0.099
102.000	-44.124	0.099
102.100	-44.319	0.100
102.200	-53.489	0.099
102.300	-35.203	0.099
102.400	-46.958	0.099
102.500	-37.110	0.099
102.600	-43.045	0.099
102.700	-35.190	0.099
102.800	-32.253	0.099
102.900	-44.024	0.099
103.000	-41.504	0.099
103.100	-54.794	0.099
103.200	-25.765	0.099
103.300	-35.007	0.099
103.400	-35.451	0.099
103.500	-30.650	0.100
103.600	-42.044	0.099
103.700	-60.364	0.099
103.800	-20.780	0.099
103.900	-59.930	0.099
104.000	-29.460	0.099
104.100	-55.688	0.099
104.200	-39.629	0.099
104.300	-35.014	0.099
104.400	-36.758	0.099
104.500	-43.569	0.099
104.600	-36.119	0.100
104.700	-39.614	0.100
104.800	-39.158	0.099
104.900	-34.901	0.100
105.000	-40.066	0.099
105.100	-39.234	0.099
105.200	-43.092	0.099
105.300	-39.850	0.099
105.400	-39.615	0.099
105.500	-42.054	0.099
105.600	-43.120	0.099
105.700	-18.474	0.100
105.800	-47.301	0.099
105.900	-29.236	0.099
106.000	-45.685	0.099
106.100	-44.999	0.099
106.200	-37.135	0.099
106.300	-47.383	0.099
106.400	-27.446	0.099
106.500	-38.507	0.099
106.600	-43.822	0.099
106.700	-35.233	0.099
106.800	-51.542	0.099
106.900	-32.544	0.099
107.000	-36.997	0.099
107.100	-37.233	0.099
107.200	-48.212	0.099
107.300	-37.512	0.100
107.400	-39.024	0.099
107.500	-40.242	0.099
107.600	-57.025	0.100
107.700	-40.877	0.099
107.800	-65.983	0.099
107.900	-31.096	0.099
108.000	-43.035	0.100
108.100	-35.447	0.099
108.200	-24.696	0.100
108.300	-39.404	0.100
108.400	-41.542	0.099
108.500	-54.182	0.100
108.600	-44.872	0.100
108.700	-30.196	0.100
108.800	-40.637	0.100
108.900	-40.650	0.099
109.000	-41.168	0.100
109.100	-51.340	0.100
109.200	-37.060	0.100
109.300	-33.968	0.099
109.400	-35.777	0.100
109.500	-43.231	0.100
109.600	-32.294	0.099
109.700	-39.673	0.099
109.800	-45.978	0.100
109.900	-34.313	0.100
110.000	-50.452	0.099
110.100	-36.074	0.100
110.200	-42.330	0.100
110.300	-40.300	0.099
110.400	-50.435	0.099
110.500	-32.013	0.099
110.600	-33.119	0.099
110.700	-54.512	0.099
110.800	-31.603	0.099
110.900	-26.041	0.100
111.000	-37.795	0.099
111.100	-51.304	0.099
111.200	-40.561	0.099
111.300	-33.485	0.099
111.400	-39.099	0.099
111.500	-36.643	0.099
111.600	-64.896	0.099
111.700	-34.447	0.099
111.800	-27.349	0.100
111.900	-34.311	0.099
112.000	-41.418	0.099
112.100	-40.113	0.100
112.200	-31.770	0.100
112.300	-29.575	0.099
112.400	-29.371	0.099
112.500	-35.665	0.100
112.600	-24.124	0.100
112.700	-31.943	0.100
112.800	-38.375	0.100
112.900	-36.161	0.099
113.000	-45.688	0.099
113.100	-41.878	0.100
113.200	-27.038	0.100
113.300	-64.270	0.100
113.400	-34.363	0.099
113.500	-36.670	0.099
113.600	-36.257	0.100
113.700	-39.985	0.100
113.800	-48.789	0.100
113.900	-38.419	0.100
114.000	-50.475	0.099
114.100	-37.879	0.100
114.200	-15.994	0.100
114.300	-30.765	0.099
114.400	-29.236	0.100
114.500	-45.516	0.099
114.600	-53.468	0.100
114.700	-44.989	0.100
114.800	-35.807	0.100
114.900	-38.283	0.100
115.000	-32.471	0.100
115.100	-30.661	0.100
115.200	-40.433	0.099
115.300	-50.563	0.100
115.400	-40.079	0.099
115.500	-41.208	0.100
115.600	-31.304	0.099
115.700	-35.279	0.099
115.800	-30.747	0.099
115.900	-57.150	0.099
116.000	-14.263	0.099
116.100	-26.399	0.099
116.200	-46.943	0.099
116.300	-47.286	0.099
116.400	-28.233	0.100
116.500	-21.961	0.100
116.600	-41.075	0.100
116.700	-26.172	0.100
116.800	-46.805	0.099
116.900	-18.379	0.100
117.000	-55.607	0.100
117.100	-32.109	0.099
117.200	-39.593	0.100
117.300	-32.938	0.099
117.400	-36.247	0.099
117.500	-47.547	0.100
117.600	-23.950	0.100
117.700	-41.900	0.100
117.800	-29.923	0.099
117.900	-29.861	0.100
118.000	-43.516	0.099
118.100	-40.375	0.099
118.200	-28.348	0.099
118.300	-46.072	0.100
118.400	-31.785	0.099
118.500	-27.255	0.099
118.600	-31.433	0.099
118.700	-43.066	0.099
118.800	-36.444	0.099
118.900	-30.429	0.100
119.000	-43.933	0.099
119.100	-21.821	0.100
119.200	-35.520	0.099
119.300	-41.278	0.099
119.400	-40.035	0.099
119.500	-24.772	0.100
119.600	-41.426	0.100
119.700	-19.032	0.100
119.800	-37.407	0.100
119.900	-21.278	0.099
120.000	-46.639	0.099
120.100	-36.428	0.099
120.200	-40.220	0.099
120.300	-34.069	0.099
120.400	-25.453	0.100
120.500	-36.773	0.099
120.600	-28.430	0.099
120.700	-32.158	0.100
120.800	-45.346	0.100
120.900	-36.749	0.099
121.000	-36.320	0.100
121.100	-44.647	0.100
121.200	-29.274	0.100
121.300	-30.303	0.099
121.400	-30.225	0.100
121.500	-34.858	0.099
121.600	-27.731	0.100
121.700	-30.807	0.100
121.800	-44.787	0.099
121.900	-32.771	0.100
122.000	-45.066	0.099
122.100	-34.804	0.099
122.200	-36.349	0.100
122.300	-36.261	0.100
122.400	-31.212	0.099
122.500	-23.202	0.100
122.600	-35.267	0.099
122.700	-25.027	0.099
122.800	-31.929	0.100
122.900	-49.311	0.100
123.000	-30.996	0.100
123.100	-41.846	0.099
123.200	-5.228	0.100
123.300	-44.603	0.100
123.400	-54.630	0.100
123.500	-19.280	0.099
123.600	-34.446	0.099
123.700	-29.962	0.100
123.800	-27.191	0.100
123.900	-43.702	0.099
124.000	-27.573	0.099
124.100	-29.045	0.100
124.200	-26.700	0.099
124.300	-29.231	0.100
124.400	-34.152	0.100
124.500	-47.253	0.099
124.600	-29.491	0.099
124.700	-54.672	0.100
124.800	-23.974	0.100
124.900	-36.979	0.099
125.000	-35.120	0.100
125.100	-27.789	0.099
125.200	-41.225	0.099
125.300	-28.581	0.100
125.400	-37.233	0.099
125.500	-29.107	0.100
125.600	-31.964	0.100
125.700	-25.309	0.100
125.800	-31.138	0.100
125.900	-46.270	0.100
126.000	-30.748	0.100
126.100	-41.991	0.100
126.200	-31.959	0.099
126.300	-35.989	0.099
126.400	-46.180	0.099
126.500	-40.815	0.100
126.600	-40.503	0.099
126.700	-45.575	0.099
126.800	-21.565	0.099
126.900	-27.511	0.100
127.000	-33.228	0.099
127.100	-38.035	0.100
127.200	-39.324	0.100
127.300	-45.154	0.100
127.400	-22.358	0.100
127.500	-23.266	0.100
127.600	-32.865	0.099
127.700	-20.156	0.100
127.800	-30.851	0.099
127.900	-36.499	0.099
128.000	-37.704	0.100
128.100	-22.144	0.099
128.200	-34.283	0.099
128.300	-38.489	0.100
128.400	-14.338	0.099
128.500	-38.858	0.100
128.600	-24.460	0.100
128.700	-32.630	0.100
128.800	-39.755	0.100
128.900	-37.242	0.099
129.000	-32.236	0.099
129.100	-36.835	0.100
129.200	-20.785	0.100
129.300	-36.537	0.100
129.400	-40.946	0.100
129.500	-37.085	0.099
129.600	-42.584	0.100
129.700	-22.065	0.100
129.800	-45.120	0.100
129.900	-32.416	0.100
130.000	-33.819	0.099
130.100	-13.931	0.099
130.200	-29.669	0.099
130.300	-30.953	0.100
130.400	-31.915	0.099
130.500	-51.356	0.099
130.600	-26.719	0.099
130.700	-28.939	0.099
130.800	-41.581	0.099
130.900	-21.376	0.100
131.000	-31.695	0.099
131.100	-31.038	0.100
131.200	-17.399	0.099
131.300	-40.640	0.099
131.400	-13.048	0.100
131.500	-33.026	0.099
131.600	-39.413	0.099
131.700	-31.891	0.099
131.800	-27.769	0.099
131.900	-30.870	0.099
132.000	-30.286	0.100
132.100	-40.855	0.100
132.200	-55.340	0.100
132.300	-39.024	0.099
132.400	-24.902	0.099
132.500	-29.056	0.099
132.600	-20.461	0.099
132.700	-52.044	0.100
132.800	-27.148	0.100
132.900	-40.862	0.099
133.000	-27.375	0.099
133.100	-35.524	0.099
133.200	-32.575	0.099
133.300	-24.728	0.099
133.400	-22.395	0.099
133.500	-47.367	0.099
133.600	-52.666	0.099
133.700	-20.812	0.099
133.800	-33.474	0.100
133.900	-39.965	0.099
134.000	-35.979	0.099
134.100	-6.690	0.099
134.200	-38.692	0.099
134.300	-37.283	0.099
134.400	-41.024	0.099
134.500	-21.714	0.100
134.600	-32.743	0.099
134.700	-34.061	0.099
134.800	-41.789	0.099
134.900	-35.204	0.099
135.000	-28.812	0.100
135.100	-40.717	0.099
135.200	-36.105	0.099
135.300	-43.753	0.099
135.400	-32.438	0.099
135.500	-32.986	0.099
135.600	-36.008	0.099
135.700	-24.610	0.099
135.800	-16.944	0.099
135.900	-48.801	0.100
136.000	-41.627	0.099
136.100	-24.960	0.099
136.200	-23.789	0.100
136.300	-32.016	0.099
136.400	-16.517	0.100
136.500	-25.316	0.099
136.600	-47.677	0.099
136.700	-20.354	0.100
136.800	-33.038	0.099
136.900	-46.791	0.099
137.000	-13.615	0.099
137.100	-30.392	0.099
137.200	-29.556	0.099
137.300	-15.628	0.099
137.400	-21.102	0.099
137.500	-45.811	0.099
137.600	-31.040	0.099
137.700	-49.886	0.100
137.800	-33.911	0.099
137.900	-22.567	0.100
138.000	-27.137	0.099
138.100	-26.864	0.099
138.200	-29.033	0.099
138.300	-37.610	0.099
138.400	-51.642	0.099
138.500	-9.478	0.100
138.600	-28.078	0.099
138.700	-24.717	0.100
138.800	-25.387	0.099
138.900	-28.297	0.099
139.000	-35.168	0.099
139.100	-28.956	0.099
139.200	-23.480	0.099
139.300	-29.231	0.099
139.400	-40.147	0.099
139.500	-30.445	0.100
139.600	-30.646	0.100
139.700	-26.901	0.099
139.800	-16.528	0.099
139.900	-43.702	0.099
140.000	-19.805	0.100
140.100	-31.794	0.099
140.200	-27.528	0.100
140.300	-47.910	0.100
140.400	-27.747	0.100
140.500	-36.501	0.100
140.600	-41.239	0.100
140.700	-10.121	0.099
140.800	-29.872	0.099
140.900	-36.951	0.099
141.000	-19.251	0.100
141.100	-29.024	0.099
141.200	-42.484	0.100
141.300	-36.569	0.100
141.400	-53.499	0.099
141.500	-27.718	0.099
141.600	-29.410	0.099
141.700	-16.003	0.100
141.800	-26.794	0.100
141.900	-25.574	0.100
142.000	-30.993	0.100
142.100	-20.333	0.099
142.200	-29.347	0.099
142.300	-26.378	0.099
142.400	-35.762	0.100
142.500	-34.124	0.099
142.600	-27.204	0.099
142.700	-30.531	0.099
142.800	-21.786	0.100
142.900	-36.005	0.099
143.000	-26.363	0.100
143.100	-21.260	0.100
143.200	-35.040	0.100
143.300	-35.826	0.099
143.400	-23.796	0.099
143.500	-19.967	0.099
143.600	-42.661	0.100
143.700	-24.240	0.100
143.800	-12.988	0.100
143.900	-28.494	0.099
144.000	-32.181	0.100
144.100	-23.263	0.100
144.200	-36.008	0.100
144.300	-39.112	0.099
144.400	-12.325	0.099
144.500	-26.795	0.100
144.600	-25.084	0.100
144.700	-31.652	0.100
144.800	-36.489	0.099
144.900	-17.607	0.100
145.000	-23.872	0.100
145.100	-60.757	0.100
145.200	-23.748	0.099
145.300	-33.113	0.099
145.400	-19.914	0.099
145.500	-40.484	0.100
145.600	-28.960	0.100
145.700	-20.127	0.100
145.800	-17.982	0.100
145.900	-31.660	0.100
146.000	-27.512	0.100
146.100	-49.306	0.100
146.200	-37.843	0.100
146.300	-36.488	0.099
146.400	-17.142	0.100
146.500	-37.683	0.100
146.600	-34.250	0.099
146.700	-24.182	0.100
146.800	-35.807	0.100
146.900	-33.347	0.100
147.000	-54.098	0.100
147.100	-10.593	0.100
147.200	-36.515	0.099
147.300	-26.098	0.100
147.400	-46.692	0.100
147.500	-19.446	0.099
147.600	-31.595	0.099
147.700	-35.167	0.100
147.800	-27.304	0.099
147.900	-32.323	0.100
148.000	-16.242	0.099
148.100	-16.329	0.100
148.200	-38.358	0.100
148.300	-30.848	0.099
148.400	-9.078	0.100
148.500	-30.700	0.100
148.600	-15.245	0.099
148.700	-24.378	0.100
148.800	-30.442	0.100
148.900	-32.948	0.099
149.000	-28.488	0.100
149.100	-27.737	0.100
149.200	-18.691	0.100
149.300	-43.654	0.099
149.400	-15.564	0.100
149.500	-21.277	0.099
149.600	-16.605	0.100
149.700	-23.667	0.100
149.800	-44.505	0.100
149.900	-20.528	0.100
150.000	-32.086	0.099
150.100	-28.229	0.099
150.200	-23.642	0.099
150.300	-43.249	0.100
150.400	-33.471	0.100
150.500	-8.695	0.099
150.600	-33.892	0.100
150.700	-33.110	0.100
150.800	-36.289	0.100
150.900	-13.301	0.100
151.000	-12.492	0.099
151.100	-23.119	0.100
151.200	-35.689	0.099
151.300	-25.674	0.100
151.400	-40.042	0.100
151.500	-38.688	0.099
151.600	-10.357	0.100
151.700	-33.707	0.100
151.800	-23.316	0.100
151.900	-41.843	0.099
152.000	-25.342	0.099
152.100	-31.931	0.099
152.200	-24.129	0.099
152.300	-16.717	0.100
152.400	-26.499	0.099
152.500	-25.989	0.099
152.600	-30.719	0.100
152.700	-38.560	0.100
152.800	-45.532	0.099
152.900	-22.585	0.099
153.000	-19.263	0.099
153.100	-42.291	0.100
153.200	-14.363	0.099
153.300	-49.543	0.100
153.400	-26.672	0.100
153.500	-41.219	0.100
153.600	-36.875	0.099
153.700	-18.588	0.099
153.800	-38.090	0.099
153.900	-14.677	0.099
154.000	-35.745	0.099
154.100	-53.060	0.100
154.200	-20.274	0.100
154.300	-32.130	0.100
154.400	-32.550	0.099
154.500	-38.515	0.100
154.600	-36.304	0.100
154.700	-7.604	0.099
154.800	-13.600	0.099
154.900	-20.779	0.100
155.000	-42.302	0.099
155.100	-33.434	0.099
155.200	-36.595	0.100
155.300	-6.148	0.100
155.400	-20.352	0.099
155.500	-36.589	0.100
155.600	-36.304	0.100
155.700	-23.199	0.100
155.800	-25.013	0.100
155.900	-49.759	0.099
156.000	-30.208	0.100
156.100	-25.751	0.099
156.200	-28.447	0.100
156.300	-31.982	0.099
156.400	-30.784	0.100
156.500	-27.856	0.100
156.600	-26.283	0.099
156.700	-16.537	0.100
156.800	-18.809	0.100
156.900	-42.193	0.099
157.000	-27.464	0.100
157.100	-10.728	0.100
157.200	-43.846	0.100
157.300	-14.045	0.100
157.400	-27.333	0.100
157.500	-19.722	0.099
157.600	-23.009	0.100
157.700	-36.323	0.099
157.800	-27.126	0.099
157.900	-17.746	0.100
158.000	-20.414	0.100
158.100	-34.580	0.100
158.200	-26.256	0.099
158.300	-18.637	0.100
158.400	-34.456	0.100
158.500	-21.511	0.099
158.600	-22.344	0.099
158.700	-33.343	0.100
158.800	-28.456	0.099
158.900	-36.337	0.099
159.000	-33.101	0.099
159.100	-16.747	0.099
159.200	-24.067	0.099
159.300	-51.212	0.099
159.400	-18.510	0.100
159.500	-41.912	0.100
159.600	-33.805	0.100
159.700	-26.866	0.099
159.800	-32.748	0.099
159.900	-18.025	0.099
160.000	-18.567	0.100
160.100	-34.242	0.099
160.200	-22.897	0.100
160.300	-38.632	0.099
160.400	-48.011	0.099
160.500	-3.227	0.100
160.600	-22.442	0.100
160.700	-36.314	0.099
160.800	-14.541	0.099
160.900	-32.624	0.099
161.000	-37.396	0.100
161.100	-2.580	0.099
161.200	-20.496	0.099
161.300	-28.782	0.100
161.400	-35.274	0.099
161.500	-28.468	0.100
161.600	-29.959	0.099
161.700	-33.826	0.099
161.800	-26.787	0.100
161.900	-12.112	0.099
162.000	-36.124	0.100
162.100	-20.409	0.100
162.200	-13.848	0.100
162.300	-31.395	0.099
162.400	-16.871	0.100
162.500	-35.611	0.099
162.600	-32.075	0.100
162.700	-25.982	0.100
162.800	-11.392	0.100
162.900	-29.146	0.099
163.000	-16.833	0.099
163.100	-37.061	0.100
163.200	-14.859	0.100
163.300	-44.604	0.100
163.400	-19.799	0.100
163.500	-7.399	0.100
163.600	-38.927	0.099
163.700	-17.935	0.100
163.800	-34.220	0.100
163.900	-32.897	0.099
164.000	-24.079	0.099
164.100	-27.319	0.100
164.200	-30.233	0.099
164.300	-34.548	0.099
164.400	-48.404	0.100
164.500	-25.247	0.100
164.600	-39.902	0.099
164.700	-20.773	0.100
164.800	-16.045	0.099
164.900	-33.361	0.099
165.000	-25.075	0.100
165.100	-36.902	0.099
165.200	-31.539	0.099
165.300	-41.360	0.100
165.400	-17.257	0.100
165.500	-21.899	0.100
165.600	-50.676	0.099
165.700	-29.980	0.100
165.800	-20.418	0.100
165.900	-29.916	0.100
166.000	-17.968	0.099
166.100	-17.601	0.099
166.200	-23.039	0.099
166.300	-39.040	0.099
166.400	-38.179	0.099
166.500	-28.176	0.100
166.600	-26.146	0.099
166.700	-45.972	0.099
166.800	-28.719	0.099
166.900	-17.597	0.100
167.000	-23.490	0.100
167.100	-25.491	0.100
167.200	-26.942	0.099
167.300	-35.818	0.099
167.400	-20.577	0.100
167.500	-14.463	0.099
167.600	-38.853	0.100
167.700	-38.953	0.099
167.800	-33.634	0.099
167.900	-31.966	0.100
168.000	-1.472	0.100
168.100	-39.142	0.099
168.200	-37.240	0.100
168.300	-43.432	0.100
168.400	-15.258	0.100
168.500	-15.901	0.099
168.600	-5.529	0.099
168.700	-40.553	0.099
168.800	-28.586	0.099
168.900	-29.850	0.100
169.000	-49.644	0.099
169.100	-31.083	0.100
169.200	-22.623	0.099
169.300	-20.550	0.100
169.400	-22.772	0.100
169.500	-26.558	0.099
169.600	-23.758	0.099
169.700	-33.956	0.100
169.800	-26.117	0.099
169.900	-21.654	0.100
170.000	-26.477	0.100
170.100	-17.028	0.100
170.200	-19.543	0.100
170.300	-46.734	0.099
170.400	-24.176	0.100
170.500	-31.263	0.100
170.600	-34.066	0.100
170.700	-29.385	0.099
170.800	-44.536	0.100
170.900	-19.895	0.099
171.000	-21.240	0.099
171.100	-24.763	0.099
171.200	-27.019	0.100
171.300	-35.740	0.100
171.400	-36.530	0.100
171.500	-36.192	0.100
171.600	-11.429	0.099
171.700	-35.754	0.099
171.800	-5.675	0.100
171.900	-32.377	0.100
172.000	-51.393	0.100
172.100	-22.416	0.100
172.200	-20.957	0.100
172.300	-23.317	0.100
172.400	-3.629	0.100
172.500	-46.736	0.100
172.600	-27.140	0.100
172.700	-27.584	0.100
172.800	-20.232	0.100
172.900	-32.824	0.100
173.000	-22.911	0.100
173.100	-19.472	0.099
173.200	-28.283	0.100
173.300	-36.707	0.100
173.400	-11.158	0.099
173.500	-35.322	0.100
173.600	-12.688	0.100
173.700	-31.631	0.100
173.800	-26.588	0.100
173.900	-14.183	0.100
174.000	-21.410	0.100
174.100	-25.261	0.100
174.200	-17.766	0.100
174.300	-31.303	0.100
174.400	-12.007	0.100
174.500	-28.894	0.100
174.600	-25.621	0.100
174.700	-32.323	0.100
174.800	-16.821	0.100
174.900	-32.086	0.100
175.000	-17.524	0.100
175.100	-27.843	0.100
175.200	-40.600	0.100
175.300	-38.755	0.099
175.400	-37.234	0.099
175.500	-27.721	0.100
175.600	-28.936	0.100
175.700	-19.220	0.100
175.800	-43.459	0.099
175.900	-23.075	0.100
176.000	-16.738	0.100
176.100	-20.100	0.100
176.200	-29.449	0.100
176.300	-31.440	0.099
176.400	-17.748	0.100
176.500	-20.637	0.100
176.600	-20.893	0.100
176.700	-22.805	0.100
176.800	-22.002	0.100
176.900	-27.224	0.100
177.000	-21.470	0.100
177.100	-19.103	0.100
177.200	-24.878	0.100
177.300	-22.590	0.100
177.400	-29.051	0.100
177.500	-47.272	0.100
177.600	-30.639	0.100
177.700	-24.010	0.100
177.800	-28.219	0.100
177.900	-34.877	0.100
178.000	-41.625	0.100
178.100	-34.821	0.100
178.200	-19.600	0.100
178.300	-20.046	0.100
178.400	-27.896	0.100
178.500	-24.282	0.100
178.600	-21.927	0.100
178.700	-22.064	0.100
178.800	-23.156	0.100
178.900	-18.573	0.100
179.000	-44.153	0.100
179.100	-47.896	0.100
179.200	-13.271	0.100
179.300	-23.551	0.100
179.400	-20.054	0.100
179.500	-32.793	0.100
179.600	-17.393	0.100
179.700	-25.744	0.099
179.800	-38.152	0.100
179.900	-15.439	0.099
180.000	5.450	0.099
180.100	8.698	0.100
180.200	9.810	0.100
180.300	26.231	0.100
180.400	14.859	0.100
180.500	13.866	0.100
180.600	22.557	0.100
180.700	33.569	0.099
180.800	24.603	0.099
180.900	16.601	0.100
181.000	34.418	0.099
181.100	32.402	0.100
181.200	29.589	0.100
181.300	34.410	0.100
181.400	33.763	0.100
181.500	30.267	0.100
181.600	23.733	0.100
181.700	25.562	0.100
181.800	4.513	0.100
181.900	7.262	0.099
182.000	9.802	0.099
182.100	26.564	0.100
182.200	24.954	0.099
182.300	11.365	0.100
182.400	27.065	0.099
182.500	25.368	0.100
182.600	13.611	0.100
182.700	27.391	0.100
182.800	12.826	0.100
182.900	15.021	0.100
183.000	8.692	0.100
183.100	27.050	0.100
183.200	8.940	0.100
183.300	20.631	0.100
183.400	19.044	0.100
183.500	-2.193	0.100
183.600	5.000	0.100
183.700	16.680	0.100
183.800	11.851	0.100
183.900	5.793	0.100
184.000	5.681	0.099
184.100	25.081	0.100
184.200	-1.109	0.100
184.300	24.299	0.100
184.400	4.232	0.100
184.500	2.599	0.100
184.600	12.527	0.100
184.700	15.195	0.099
184.800	12.060	0.100
184.900	30.411	0.100
185.000	13.389	0.100
185.100	11.446	0.100
185.200	13.832	0.100
185.300	19.149	0.100
185.400	16.608	0.100
185.500	9.190	0.100
185.600	9.858	0.100
185.700	20.031	0.100
185.800	23.036	0.100
185.900	22.673	0.100
186.000	22.307	0.100
186.100	15.407	0.100
186.200	19.196	0.099
186.300	28.692	0.099
186.400	15.743	0.100
186.500	20.402	0.100
186.600	20.511	0.100
186.700	21.413	0.100
186.800	20.578	0.100
186.900	12.398	0.100
187.000	9.531	0.100
187.100	16.093	0.100
187.200	25.163	0.100
187.300	27.946	0.100
187.400	30.766	0.100
187.500	28.957	0.100
187.600	25.406	0.100
187.700	21.242	0.100
187.800	21.300	0.100
187.900	22.719	0.099
188.000	15.323	0.100
188.100	32.242	0.099
188.200	13.848	0.099
188.300	42.711	0.099
188.400	32.202	0.100
188.500	29.622	0.100
188.600	19.299	0.100
188.700	33.785	0.100
188.800	21.730	0.099
188.900	23.842	0.100
189.000	37.413	0.100
189.100	23.527	0.099
189.200	9.226	0.099
189.300	27.436	0.099
189.400	43.713	0.099
189.500	34.274	0.099
189.600	31.076	0.100
189.700	36.403	0.099
189.800	33.269	0.100
189.900	32.873	0.100
190.000	39.643	0.099
190.100	25.249	0.100
190.200	31.564	0.099
190.300	22.809	0.099
190.400	53.053	0.100
190.500	29.639	0.100
190.600	27.994	0.100
190.700	39.675	0.100
190.800	26.691	0.100
190.900	25.256	0.100
191.000	51.270	0.100
191.100	35.435	0.099
191.200	39.888	0.100
191.300	22.304	0.100
191.400	29.641	0.100
191.500	44.385	0.100
191.600	36.730	0.099
191.700	51.312	0.099
191.800	36.248	0.099
191.900	55.392	0.099
192.000	43.929	0.099
192.100	35.550	0.100
192.200	36.657	0.100
192.300	35.149	0.099
192.400	43.866	0.100
192.500	53.707	0.100
192.600	33.008	0.099
192.700	36.578	0.099
192.800	33.460	0.100
192.900	38.887	0.100
193.000	42.338	0.099
193.100	28.971	0.100
193.200	55.386	0.099
193.300	45.925	0.099
193.400	43.680	0.100
193.500	42.752	0.099
193.600	32.799	0.099
193.700	46.449	0.100
193.800	44.326	0.100
193.900	39.758	0.100
194.000	36.904	0.100
194.100	49.360	0.100
194.200	41.752	0.100
194.300	51.754	0.100
194.400	56.288	0.100
194.500	39.596	0.099
194.600	53.606	0.100
194.700	60.379	0.100
194.800	24.938	0.100
194.900	50.574	0.099
195.000	44.633	0.100
195.100	52.557	0.100
195.200	44.555	0.099
195.300	48.573	0.100
195.400	74.308	0.100
195.500	53.946	0.099
195.600	43.641	0.099
195.700	52.259	0.100
195.800	55.497	0.100
195.900	58.609	0.100
196.000	45.592	0.099
196.100	48.919	0.099
196.200	51.844	0.099
196.300	42.617	0.099
196.400	49.682	0.100
196.500	52.847	0.100
196.600	48.626	0.100
196.700	46.829	0.100
196.800	53.386	0.100
196.900	51.218	0.100
197.000	61.214	0.100
197.100	49.614	0.099
197.200	50.985	0.100
197.300	50.663	0.100
197.400	58.427	0.100
197.500	55.491	0.100
197.600	47.168	0.100
197.700	54.481	0.100
197.800	60.515	0.100
197.900	60.299	0.100
198.000	48.936	0.100
198.100	36.622	0.100
198.200	61.396	0.100
198.300	39.408	0.100
198.400	56.227	0.100
198.500	52.997	0.100
198.600	59.774	0.100
198.700	44.330	0.100
198.800	54.510	0.100
198.900	65.859	0.100
199.000	47.828	0.100
199.100	44.980	0.099
199.200	60.148	0.100
199.300	65.511	0.100
199.400	50.234	0.100
199.500	53.757	0.100
199.600	59.665	0.100
199.700	59.440	0.100
199.800	35.897	0.100
199.900	52.496	0.100
200.000	42.614	0.100
200.100	54.242	0.100
200.200	60.391	0.099
200.300	65.556	0.100
200.400	66.160	0.100
200.500	58.682	0.100
200.600	29.217	0.100
200.700	71.608	0.100
200.800	64.023	0.100
200.900	61.074	0.100
201.000	49.545	0.100
201.100	59.275	0.100
201.200	46.465	0.100
201.300	47.440	0.100
201.400	71.896	0.100
201.500	62.380	0.100
201.600	67.639	0.100
201.700	69.344	0.100
201.800	39.082	0.100
201.900	66.978	0.100
202.000	53.968	0.100
202.100	63.098	0.100
202.200	54.857	0.100
202.300	65.403	0.100
202.400	66.949	0.100
202.500	35.658	0.100
202.600	88.540	0.100
202.700	64.584	0.100
202.800	62.620	0.100
202.900	61.563	0.100
203.000	51.146	0.100
203.100	51.702	0.100
203.200	59.577	0.100
203.300	75.346	0.100
203.400	54.180	0.100
203.500	88.784	0.100
203.600	55.721	0.100
203.700	49.259	0.100
203.800	71.631	0.100
203.900	58.431	0.100
204.000	60.369	0.100
204.100	62.524	0.100
204.200	59.342	0.100
204.300	47.991	0.100
204.400	64.928	0.100
204.500	60.206	0.100
204.600	60.261	0.100
204.700	83.446	0.100
204.800	61.028	0.099
204.900	78.838	0.100
205.000	69.663	0.100
205.100	49.075	0.100
205.200	76.269	0.099
205.300	69.678	0.100
205.400	73.085	0.100
205.500	54.412	0.100
205.600	69.119	0.099
205.700	74.501	0.100
205.800	59.355	0.100
205.900	56.691	0.100
206.000	73.852	0.100
206.100	51.569	0.100
206.200	73.927	0.100
206.300	63.771	0.100
206.400	70.403	0.100
206.500	71.752	0.100
206.600	72.357	0.100
206.700	61.324	0.100
206.800	68.703	0.100
206.900	72.142	0.100
207.000	57.213	0.100
207.100	78.183	0.100
207.200	71.561	0.100
207.300	60.261	0.100
207.400	72.353	0.100
207.500	74.119	0.099
207.600	77.017	0.100
207.700	84.481	0.099
207.800	76.863	0.100
207.900	66.610	0.100
208.000	69.228	0.100
208.100	60.614	0.100
208.200	80.776	0.100
208.300	64.481	0.099
208.400	66.298	0.100
208.500	67.602	0.100
208.600	76.398	0.100
208.700	63.898	0.100
208.800	75.854	0.100
208.900	70.376	0.099
209.000	83.473	0.100
209.100	72.489	0.100
209.200	73.259	0.100
209.300	83.265	0.100
209.400	74.131	0.100
209.500	78.512	0.100
209.600	72.544	0.100
209.700	76.712	0.100
209.800	82.866	0.100
209.900	72.847	0.100
210.000	68.195	0.100
210.100	64.252	0.100
210.200	64.500	0.100
210.300	80.876	0.100
210.400	82.827	0.100
210.500	61.355	0.099
210.600	78.023	0.100
210.700	91.584	0.099
210.800	68.706	0.100
210.900	78.838	0.100
211.000	70.923	0.100
211.100	78.399	0.100
211.200	71.312	0.100
211.300	54.932	0.100
211.400	73.665	0.100
211.500	77.221	0.100
211.600	80.761	0.100
211.700	67.245	0.100
211.800	74.867	0.100
211.900	74.783	0.100
212.000	81.569	0.100
212.100	85.062	0.100
212.200	76.233	0.100
212.300	65.631	0.100
212.400	79.746	0.100
212.500	82.628	0.100
212.600	79.565	0.100
212.700	76.166	0.100
212.800	86.578	0.100
212.900	83.873	0.100
213.000	83.089	0.100
213.100	80.806	0.100
213.200	76.914	0.100
213.300	81.670	0.099
213.400	76.636	0.099
213.500	77.575	0.100
213.600	84.288	0.100
213.700	85.737	0.100
213.800	86.542	0.100
213.900	77.306	0.100
214.000	63.919	0.100
214.100	77.485	0.100
214.200	73.917	0.100
214.300	77.405	0.100
214.400	70.793	0.100
214.500	88.502	0.099
214.600	75.590	0.100
214.700	72.300	0.100
214.800	79.761	0.100
214.900	91.727	0.100
215.000	88.613	0.100
215.100	80.091	0.100
215.200	81.741	0.100
215.300	74.735	0.100
215.400	80.564	0.100
215.500	59.072	0.100
215.600	76.404	0.100
215.700	74.894	0.100
215.800	78.516	0.100
215.900	80.472	0.100
216.000	94.057	0.100
216.100	77.158	0.100
216.200	68.207	0.100
216.300	74.960	0.100
216.400	82.676	0.100
216.500	72.991	0.100
216.600	96.410	0.100
216.700	74.431	0.100
216.800	86.717	0.100
216.900	88.282	0.099
217.000	86.533	0.100
217.100	85.056	0.099
217.200	73.751	0.099
217.300	87.376	0.100
217.400	80.776	0.100
217.500	76.222	0.100
217.600	62.176	0.100
217.700	74.942	0.099
217.800	86.728	0.099
217.900	77.143	0.100
218.000	75.258	0.100
218.100	80.573	0.100
218.200	66.913	0.100
218.300	65.426	0.100
218.400	80.381	0.099
218.500	67.285	0.100
218.600	80.768	0.100
218.700	85.249	0.100
218.800	83.855	0.100
218.900	75.302	0.099
219.000	86.599	0.100
219.100	97.401	0.100
219.200	72.261	0.100
219.300	85.181	0.100
219.400	67.382	0.100
219.500	69.728	0.099
219.600	100.241	0.099
219.700	81.817	0.099
219.800	85.850	0.099
219.900	66.049	0.100
220.000	77.207	0.099
220.100	80.150	0.100
220.200	74.972	0.100
220.300	56.178	0.100
220.400	94.377	0.100
220.500	74.147	0.100
220.600	70.489	0.100
220.700	99.261	0.100
220.800	84.388	0.100
220.900	67.967	0.100
221.000	93.991	0.099
221.100	65.634	0.100
221.200	76.206	0.100
221.300	75.595	0.100
221.400	71.006	0.100
221.500	79.583	0.100
221.600	72.763	0.099
221.700	75.917	0.100
221.800	69.786	0.100
221.900	82.498	0.100
222.000	67.584	0.100
222.100	81.824	0.100
222.200	80.033	0.100
222.300	72.974	0.100
222.400	81.247	0.100
222.500	71.722	0.100
222.600	77.371	0.100
222.700	88.605	0.100
222.800	80.730	0.100
222.900	76.402	0.099
223.000	91.449	0.100
223.100	74.016	0.099
223.200	90.022	0.100
223.300	79.701	0.099
223.400	73.379	0.100
223.500	74.344	0.100
223.600	74.575	0.100
223.700	77.478	0.099
223.800	67.337	0.100
223.900	64.083	0.100
224.000	68.785	0.099
224.100	71.811	0.100
224.200	79.608	0.099
224.300	99.950	0.099
224.400	92.887	0.099
224.500	77.296	0.100
224.600	66.764	0.100
224.700	82.715	0.100
224.800	69.452	0.100
224.900	96.814	0.100
225.000	79.976	0.100
225.100	69.432	0.100
225.200	69.739	0.099
225.300	75.847	0.100
225.400	76.661	0.099
225.500	79.320	0.099
225.600	87.375	0.100
225.700	86.588	0.100
225.800	70.301	0.100
225.900	52.358	0.099
226.000	91.673	0.099
226.100	85.579	0.100
226.200	76.289	0.100
226.300	74.331	0.100
226.400	87.480	0.100
226.500	68.988	0.100
226.600	82.656	0.100
226.700	81.595	0.100
226.800	84.421	0.100
226.900	78.547	0.099
227.000	75.307	0.100
227.100	72.342	0.100
227.200	77.301	0.100
227.300	84.800	0.100
227.400	73.623	0.100
227.500	62.644	0.100
227.600	78.555	0.100
227.700	74.039	0.100
227.800	78.008	0.099
227.900	83.681	0.100
228.000	76.932	0.100
228.100	64.416	0.100
228.200	75.939	0.099
228.300	76.189	0.100
228.400	74.480	0.099
228.500	86.683	0.099
228.600	86.057	0.099
228.700	71.898	0.100
228.800	78.280	0.100
228.900	85.359	0.100
229.000	89.222	0.100
229.100	74.374	0.100
229.200	74.665	0.100
229.300	81.613	0.100
229.400	68.281	0.100
229.500	79.073	0.100
229.600	69.842	0.100
229.700	80.788	0.099
229.800	72.159	0.099
229.900	82.055	0.100
230.000	68.211	0.100
230.100	73.792	0.099
230.200	64.004	0.100
230.300	63.570	0.099
230.400	74.239	0.099
230.500	66.006	0.100
230.600	64.455	0.100
230.700	84.131	0.100
230.800	73.761	0.100
230.900	69.547	0.100
231.000	76.680	0.100
231.100	75.149	0.100
231.200	88.777	0.100
231.300	70.873	0.100
231.400	73.194	0.100
231.500	55.763	0.100
231.600	61.122	0.100
231.700	83.153	0.099
231.800	62.401	0.100
231.900	87.360	0.100
232.000	77.689	0.099
232.100	72.371	0.099
232.200	72.280	0.100
232.300	57.273	0.099
232.400	64.977	0.100
232.500	79.386	0.100
232.600	87.564	0.100
232.700	69.838	0.099
232.800	67.099	0.100
232.900	71.324	0.100
233.000	88.485	0.100
233.100	69.040	0.100
233.200	81.658	0.100
233.300	64.987	0.100
233.400	68.203	0.100
233.500	65.763	0.099
233.600	73.695	0.099
233.700	87.809	0.099
233.800	81.024	0.100
233.900	61.313	0.100
234.000	75.549	0.099
234.100	70.946	0.099
234.200	85.463	0.099
234.300	68.265	0.099
234.400	71.822	0.100
234.500	72.555	0.100
234.600	70.941	0.099
234.700	74.219	0.099
234.800	72.778	0.099
234.900	89.895	0.099
235.000	67.042	0.100
235.100	63.977	0.099
235.200	71.963	0.100
235.300	49.622	0.099
235.400	80.529	0.100
235.500	73.565	0.099
235.600	86.042	0.100
235.700	65.147	0.100
235.800	65.244	0.100
235.900	69.957	0.099
236.000	77.357	0.099
236.100	84.215	0.099
236.200	75.295	0.100
236.300	66.104	0.100
236.400	73.510	0.099
236.500	51.665	0.100
236.600	74.164	0.099
236.700	67.005	0.100
236.800	83.296	0.100
236.900	67.779	0.100
237.000	58.161	0.099
237.100	66.841	0.099
237.200	88.835	0.100
237.300	69.183	0.099
237.400	67.780	0.100
237.500	71.837	0.100
237.600	69.981	0.100
237.700	94.425	0.100
237.800	71.072	0.099
237.900	51.738	0.099
238.000	76.612	0.099
238.100	67.566	0.099
238.200	78.119	0.100
238.300	74.935	0.100
238.400	64.388	0.100
238.500	77.068	0.100
238.600	81.443	0.099
238.700	68.991	0.100
238.800	72.031	0.099
238.900	57.728	0.100
239.000	81.230	0.100
239.100	67.346	0.099
239.200	78.530	0.099
239.300	69.573	0.100
239.400	85.399	0.100
239.500	69.987	0.100
239.600	81.299	0.100
239.700	70.803	0.100
239.800	68.408	0.099
239.900	76.574	0.100
240.000	57.424	0.100
240.100	57.012	0.100
240.200	64.487	0.100
240.300	44.044	0.100
240.400	28.123	0.100
240.500	16.219	0.100
240.600	-1.405	0.099
240.700	11.223	0.100
240.800	-8.898	0.100
240.900	-23.816	0.100
241.000	-21.115	0.100
241.100	-17.144	0.100
241.200	-35.279	0.100
241.300	-34.705	0.100
241.400	-30.390	0.100
241.500	-47.383	0.099
241.600	-57.511	0.099
241.700	-58.713	0.100
241.800	-43.247	0.100
241.900	-56.669	0.100
242.000	-60.619	0.099
242.100	-68.241	0.099
242.200	-50.711	0.100
242.300	-65.790	0.100
242.400	-57.865	0.100
242.500	-66.504	0.100
242.600	-65.660	0.100
242.700	-70.950	0.100
242.800	-70.522	0.100
242.900	-67.813	0.099
243.000	-57.921	0.100
243.100	-61.549	0.100
243.200	-57.295	0.100
243.300	-64.432	0.099
243.400	-60.593	0.099
243.500	-59.806	0.100
243.600	-60.666	0.100
243.700	-58.836	0.100
243.800	-35.154	0.100
243.900	-52.555	0.100
244.000	-63.229	0.100
244.100	-61.220	0.099
244.200	-48.913	0.100
244.300	-61.047	0.100
244.400	-55.168	0.100
244.500	-65.117	0.100
244.600	-71.833	0.100
244.700	-43.330	0.100
244.800	-76.863	0.099
244.900	-44.486	0.100
245.000	-33.479	0.100
245.100	-48.939	0.100
245.200	-64.286	0.100
245.300	-62.216	0.099
245.400	-49.831	0.100
245.500	-52.989	0.100
245.600	-44.660	0.100
245.700	-59.638	0.100
245.800	-64.091	0.100
245.900	-31.104	0.100
246.000	-43.774	0.100
246.100	-47.851	0.100
246.200	-60.282	0.100
246.300	-49.681	0.100
246.400	-48.930	0.100
246.500	-42.510	0.100
246.600	-36.588	0.100
246.700	-54.965	0.099
246.800	-51.760	0.099
246.900	-52.440	0.100
247.000	-36.158	0.100
247.100	-33.273	0.100
247.200	-47.647	0.100
247.300	-58.403	0.099
247.400	-46.893	0.100
247.500	-56.869	0.100
247.600	-55.203	0.100
247.700	-65.050	0.100
247.800	-59.906	0.100
247.900	-44.012	0.100
248.000	-42.851	0.100
248.100	-62.961	0.100
248.200	-47.103	0.100
248.300	-50.275	0.100
248.400	-67.492	0.100
248.500	-41.448	0.099
248.600	-43.995	0.099
248.700	-52.608	0.099
248.800	-34.927	0.099
248.900	-50.810	0.100
249.000	-56.416	0.100
249.100	-47.643	0.100
249.200	-49.993	0.100
249.300	-54.020	0.100
249.400	-30.193	0.099
249.500	-58.722	0.100
249.600	-43.644	0.100
249.700	-53.767	0.100
249.800	-37.842	0.100
249.900	-60.192	0.100
250.000	-62.442	0.099
250.100	-44.792	0.100
250.200	-54.924	0.099
250.300	-50.363	0.099
250.400	-40.227	0.099
250.500	-45.912	0.099
250.600	-48.945	0.099
250.700	-55.865	0.100
250.800	-44.803	0.100
250.900	-44.542	0.100
251.000	-57.681	0.100
251.100	-51.518	0.100
251.200	-62.693	0.100
251.300	-44.515	0.100
251.400	-44.477	0.100
251.500	-37.569	0.100
251.600	-46.541	0.099
251.700	-53.850	0.100
251.800	-47.833	0.100
251.900	-58.236	0.100
252.000	-50.326	0.099
252.100	-54.562	0.099
252.200	-46.955	0.099
252.300	-33.480	0.100
252.400	-48.138	0.100
252.500	-42.508	0.099
252.600	-63.190	0.100
252.700	-48.176	0.100
252.800	-30.004	0.100
252.900	-64.811	0.100
253.000	-61.454	0.100
253.100	-60.614	0.099
253.200	-48.044	0.099
253.300	-47.558	0.099
253.400	-42.663	0.099
253.500	-46.852	0.099
253.600	-54.939	0.099
253.700	-59.173	0.099
253.800	-43.518	0.100
253.900	-55.992	0.099
254.000	-49.715	0.099
254.100	-52.503	0.099
254.200	-53.984	0.099
254.300	-35.861	0.100
254.400	-53.379	0.099
254.500	-54.718	0.099
254.600	-47.476	0.099
254.700	-50.332	0.100
254.800	-59.240	0.099
254.900	-43.263	0.099
255.000	-52.397	0.100
255.100	-40.888	0.100
255.200	-44.757	0.099
255.300	-42.271	0.099
255.400	-43.845	0.100
255.500	-48.567	0.100
255.600	-53.387	0.099
255.700	-29.675	0.100
255.800	-48.998	0.100
255.900	-59.919	0.100
256.000	-48.424	0.099
256.100	-58.809	0.100
256.200	-50.809	0.100
256.300	-41.802	0.099
256.400	-63.735	0.099
256.500	-46.497	0.099
256.600	-52.046	0.099
256.700	-60.638	0.100
256.800	-35.306	0.099
256.900	-26.266	0.099
257.000	-61.148	0.100
257.100	-46.565	0.099
257.200	-45.497	0.099
257.300	-53.133	0.099
257.400	-57.863	0.099
257.500	-48.182	0.099
257.600	-42.327	0.100
257.700	-55.847	0.100
257.800	-62.669	0.099
257.900	-34.599	0.100
258.000	-58.915	0.100
258.100	-43.491	0.099
258.200	-52.428	0.100
258.300	-46.549	0.100
258.400	-49.211	0.100
258.500	-57.353	0.099
258.600	-42.807	0.099
258.700	-39.040	0.099
258.800	-34.828	0.099
258.900	-42.890	0.100
259.000	-32.902	0.100
259.100	-52.628	0.100
259.200	-51.822	0.100
259.300	-48.350	0.100
259.400	-59.837	0.100
259.500	-48.940	0.099
259.600	-45.380	0.100
259.700	-32.718	0.099
259.800	-46.163	0.100
259.900	-45.373	0.100
260.000	-37.242	0.100
260.100	-39.127	0.099
260.200	-41.391	0.100
260.300	-43.659	0.100
260.400	-30.395	0.100
260.500	-38.828	0.100
260.600	-58.330	0.100
260.700	-59.153	0.100
260.800	-39.412	0.100
260.900	-44.440	0.100
261.000	-49.574	0.100
261.100	-28.604	0.100
261.200	-34.895	0.100
261.300	-49.419	0.100
261.400	-46.960	0.100
261.500	-48.714	0.100
261.600	-50.675	0.100
261.700	-56.183	0.100
261.800	-42.809	0.099
261.900	-46.659	0.100
262.000	-52.922	0.100
262.100	-46.118	0.100
262.200	-53.154	0.099
262.300	-35.537	0.099
262.400	-52.746	0.099
262.500	-32.364	0.099
262.600	-49.387	0.100
262.700	-46.787	0.100
262.800	-40.152	0.100
262.900	-63.480	0.099
263.000	-26.528	0.100
263.100	-42.805	0.099
263.200	-49.021	0.100
263.300	-52.744	0.099
263.400	-44.472	0.099
263.500	-43.668	0.100
263.600	-40.444	0.100
263.700	-42.439	0.100
263.800	-51.647	0.099
263.900	-47.048	0.100
264.000	-48.550	0.100
264.100	-45.987	0.100
264.200	-51.033	0.099
264.300	-32.439	0.100
264.400	-49.274	0.099
264.500	-36.894	0.099
264.600	-41.230	0.099
264.700	-48.693	0.099
264.800	-38.129	0.100
264.900	-58.804	0.100
265.000	-34.282	0.099
265.100	-35.823	0.100
265.200	-36.549	0.099
265.300	-50.231	0.100
265.400	-42.795	0.100
265.500	-37.329	0.099
265.600	-40.081	0.099
265.700	-51.269	0.100
265.800	-45.074	0.099
265.900	-42.814	0.100
266.000	-40.209	0.099
266.100	-37.867	0.100
266.200	-34.452	0.099
266.300	-53.767	0.099
266.400	-43.875	0.099
266.500	-40.214	0.099
266.600	-41.819	0.099
266.700	-41.492	0.099
266.800	-21.711	0.099
266.900	-40.433	0.099
267.000	-39.567	0.099
267.100	-48.084	0.100
267.200	-34.566	0.100
267.300	-28.189	0.100
267.400	-52.680	0.100
267.500	-50.090	0.099
267.600	-53.964	0.099
267.700	-36.349	0.099
267.800	-28.666	0.099
267.900	-37.222	0.099
268.000	-44.671	0.099
268.100	-45.346	0.100
268.200	-49.164	0.100
268.300	-27.731	0.100
268.400	-41.390	0.099
268.500	-39.505	0.100
268.600	-23.258	0.099
268.700	-34.193	0.100
268.800	-33.767	0.099
268.900	-41.014	0.100
269.000	-44.798	0.100
269.100	-44.003	0.099
269.200	-35.310	0.100
269.300	-41.356	0.099
269.400	-39.109	0.099
269.500	-41.637	0.100
269.600	-44.472	0.099
269.700	-44.803	0.100
269.800	-33.100	0.100
269.900	-36.812	0.100
270.000	-47.299	0.100
270.100	-45.368	0.099
270.200	-54.445	0.100
270.300	-47.877	0.099
270.400	-34.464	0.099
270.500	-45.288	0.099
270.600	-44.443	0.099
270.700	-49.261	0.099
270.800	-37.076	0.099
270.900	-36.919	0.099
271.000	-26.052	0.099
271.100	-23.011	0.099
271.200	-44.010	0.099
271.300	-51.612	0.099
271.400	-46.415	0.099
271.500	-26.057	0.099
271.600	-38.912	0.100
271.700	-46.791	0.100
271.800	-35.787	0.100
271.900	-50.239	0.100
272.000	-39.146	0.099
272.100	-37.040	0.099
272.200	-15.296	0.100
272.300	-54.384	0.099
272.400	-38.797	0.099
272.500	-24.039	0.099
272.600	-46.638	0.099
272.700	-46.085	0.100
272.800	-27.437	0.099
272.900	-29.028	0.100
273.000	-51.198	0.099
273.100	-36.132	0.100
273.200	-39.569	0.100
273.300	-37.496	0.100
273.400	-39.366	0.100
273.500	-40.672	0.099
273.600	-36.429	0.100
273.700	-35.168	0.100
273.800	-46.082	0.099
273.900	-41.165	0.099
274.000	-47.118	0.099
274.100	-43.561	0.099
274.200	-41.807	0.100
274.300	-9.995	0.100
274.400	-30.165	0.100
274.500	-47.507	0.100
274.600	-40.692	0.099
274.700	-24.872	0.100
274.800	-37.178	0.100
274.900	-42.166	0.099
275.000	-38.234	0.100
275.100	-29.647	0.099
275.200	-45.716	0.099
275.300	-43.557	0.099
275.400	-43.414	0.099
275.500	-37.049	0.099
275.600	-40.763	0.100
275.700	-46.874	0.100
275.800	-48.650	0.100
275.900	-34.371	0.099
276.000	-43.364	0.100
276.100	-44.386	0.100
276.200	-28.396	0.099
276.300	-40.451	0.100
276.400	-30.185	0.099
276.500	-34.356	0.099
276.600	-16.926	0.099
276.700	-42.025	0.099
276.800	-41.678	0.099
276.900	-23.376	0.099
277.000	-29.201	0.100
277.100	-42.099	0.099
277.200	-23.328	0.099
277.300	-47.659	0.100
277.400	-27.573	0.099
277.500	-44.135	0.099
277.600	-33.104	0.099
277.700	-42.806	0.099
277.800	-37.669	0.099
277.900	-42.800	0.099
278.000	-48.357	0.099
278.100	-29.865	0.099
278.200	-32.701	0.100
278.300	-43.309	0.100
278.400	-43.469	0.099
278.500	-34.471	0.099
278.600	-32.690	0.099
278.700	-51.075	0.099
278.800	-27.086	0.099
278.900	-25.178	0.099
279.000	-31.486	0.099
279.100	-34.382	0.099
279.200	-40.832	0.100
279.300	-18.420	0.099
279.400	-46.318	0.099
279.500	-29.112	0.099
279.600	-32.705	0.099
279.700	-62.366	0.099
279.800	-27.183	0.099
279.900	-53.791	0.099
280.000	-32.089	0.099
280.100	-35.620	0.099
280.200	-40.687	0.099
280.300	-36.634	0.100
280.400	-19.228	0.100
280.500	-44.515	0.100
280.600	-38.962	0.100
280.700	-24.803	0.099
280.800	-39.548	0.099
280.900	-38.845	0.100
281.000	-36.234	0.099
281.100	-31.788	0.100
281.200	-33.954	0.100
281.300	-40.447	0.100
281.400	-35.059	0.099
281.500	-37.962	0.100
281.600	-39.893	0.100
281.700	-35.026	0.100
281.800	-51.912	0.100
281.900	-30.738	0.099
282.000	-35.476	0.100
282.100	-47.784	0.099
282.200	-23.249	0.099
282.300	-55.168	0.100
282.400	-49.581	0.099
282.500	-36.056	0.100
282.600	-42.258	0.100
282.700	-31.142	0.100
282.800	-37.777	0.099
282.900	-36.457	0.100
283.000	-16.060	0.100
283.100	-32.879	0.100
283.200	-47.939	0.099
283.300	-50.588	0.100
283.400	-42.981	0.099
283.500	-38.811	0.100
283.600	-34.855	0.100
283.700	-26.089	0.100
283.800	-49.749	0.100
283.900	-44.360	0.100
284.000	-36.935	0.100
284.100	-26.344	0.100
284.200	-29.461	0.100
284.300	-20.394	0.100
284.400	-33.441	0.100
284.500	-40.749	0.100
284.600	-40.778	0.100
284.700	-50.550	0.100
284.800	-19.995	0.100
284.900	-37.746	0.100
285.000	-44.744	0.100
285.100	-38.306	0.100
285.200	-48.255	0.100
285.300	-49.375	0.100
285.400	-43.346	0.100
285.500	-40.506	0.100
285.600	-36.075	0.100
285.700	-38.662	0.100
285.800	-50.844	0.100
285.900	-24.980	0.100
286.000	-30.277	0.099
286.100	-52.650	0.099
286.200	-32.244	0.100
286.300	-36.983	0.099
286.400	-34.554	0.100
286.500	-36.644	0.100
286.600	-21.743	0.100
286.700	-37.657	0.100
286.800	-36.114	0.100
286.900	-31.138	0.100
287.000	-44.652	0.100
287.100	-43.983	0.100
287.200	-29.468	0.100
287.300	-36.847	0.100
287.400	-31.067	0.100
287.500	-31.615	0.100
287.600	-28.262	0.100
287.700	-30.773	0.100
287.800	-34.566	0.100
287.900	-43.930	0.100
288.000	-30.001	0.100
288.100	-22.672	0.100
288.200	-48.612	0.100
288.300	-31.402	0.100
288.400	-33.614	0.099
288.500	-33.679	0.100
288.600	-27.389	0.099
288.700	-39.971	0.099
288.800	-35.456	0.100
288.900	-27.145	0.100
289.000	-46.448	0.100
289.100	-38.759	0.100
289.200	-29.338	0.100
289.300	-34.273	0.100
289.400	-25.829	0.100
289.500	-23.381	0.100
289.600	-31.494	0.100
289.700	-41.400	0.099
289.800	-13.940	0.099
289.900	-21.311	0.100
290.000	-33.632	0.100
290.100	-23.318	0.100
290.200	-39.140	0.100
290.300	-28.246	0.100
290.400	-29.095	0.099
290.500	-44.080	0.099
290.600	-36.812	0.100
290.700	-40.155	0.100
290.800	-37.206	0.100
290.900	-34.316	0.100
291.000	-47.286	0.099
291.100	-52.273	0.099
291.200	-49.374	0.099
291.300	-39.432	0.099
291.400	-7.568	0.099
291.500	-21.893	0.100
291.600	-40.663	0.100
291.700	-33.662	0.099
291.800	-32.644	0.100
291.900	-40.622	0.099
292.000	-50.629	0.099
292.100	-21.539	0.099
292.200	-34.075	0.100
292.300	-12.948	0.099
292.400	-30.129	0.099
292.500	-33.417	0.100
292.600	-28.718	0.100
292.700	-36.961	0.099
292.800	-23.970	0.099
292.900	-40.744	0.099
293.000	-27.149	0.100
293.100	-21.787	0.100
293.200	-36.464	0.100
293.300	-44.200	0.100
293.400	-37.536	0.099
293.500	-29.070	0.099
293.600	-39.929	0.099
293.700	-31.920	0.100
293.800	-27.082	0.099
293.900	-38.888	0.099
294.000	-22.748	0.100
294.100	-32.411	0.100
294.200	-36.188	0.100
294.300	-35.715	0.100
294.400	-33.683	0.099
294.500	-46.115	0.100
294.600	-38.829	0.099
294.700	-37.993	0.100
294.800	-31.939	0.100
294.900	-33.750	0.099
295.000	-18.959	0.099
295.100	-22.214	0.100
295.200	-38.377	0.099
295.300	-24.470	0.100
295.400	-42.591	0.100
295.500	-22.373	0.100
295.600	-39.191	0.100
295.700	-47.803	0.099
295.800	-36.519	0.099
295.900	-37.903	0.100
296.000	-36.994	0.099
296.100	-47.154	0.099
296.200	-25.319	0.099
296.300	-39.741	0.099
296.400	-22.577	0.099
296.500	-52.652	0.099
296.600	-29.474	0.100
296.700	-42.267	0.100
296.800	-35.804	0.100
296.900	-9.738	0.100
297.000	-28.186	0.099
297.100	-27.835	0.099
297.200	-30.701	0.099
297.300	-45.608	0.100
297.400	-51.532	0.099
297.500	-44.032	0.099
297.600	-28.583	0.100
297.700	-31.706	0.100
297.800	-46.080	0.099
297.900	-32.632	0.099
298.000	-38.470	0.100
298.100	-22.114	0.100
298.200	-33.319	0.099
298.300	-37.616	0.099
298.400	-29.375	0.099
298.500	-38.125	0.099
298.600	-37.614	0.099
298.700	-35.601	0.099
298.800	-36.558	0.099
298.900	-28.554	0.100
299.000	-31.509	0.100
299.100	-35.416	0.100
299.200	-52.636	0.099
299.300	-38.924	0.099
299.400	-25.707	0.099
299.500	-18.739	0.100
299.600	-26.100	0.099
299.700	-23.970	0.100
299.800	-49.761	0.100
299.900	-30.627	0.100
300.000	-38.994	0.100
300.100	-37.464	0.100
300.200	-36.097	0.099
300.300	-35.191	0.099
300.400	-26.772	0.100
300.500	-34.197	0.100
300.600	-36.180	0.099
300.700	-43.756	0.099
300.800	-36.071	0.100
300.900	-24.066	0.099
301.000	-49.000	0.099
301.100	-25.995	0.099
301.200	-16.147	0.100
301.300	-38.032	0.100
301.400	-30.944	0.100
301.500	-29.892	0.100
301.600	-20.703	0.100
301.700	-55.092	0.100
301.800	-24.312	0.100
301.900	-38.754	0.100
302.000	-24.767	0.099
302.100	-25.981	0.099
302.200	-27.138	0.099
302.300	-44.622	0.100
302.400	-30.616	0.099
302.500	-23.342	0.100
302.600	-38.767	0.099
302.700	-54.106	0.100
302.800	-32.009	0.100
302.900	-41.695	0.100
303.000	-26.230	0.100
303.100	-39.123	0.099
303.200	-38.427	0.099
303.300	-33.667	0.100
303.400	-43.339	0.099
303.500	-39.858	0.099
303.600	-26.982	0.100
303.700	-29.854	0.100
303.800	-32.815	0.100
303.900	-33.641	0.100
304.000	-25.190	0.100
304.100	-27.727	0.100
304.200	-46.245	0.099
304.300	-37.784	0.099
304.400	-21.878	0.099
304.500	-31.687	0.100
304.600	-33.586	0.100
304.700	-38.585	0.100
304.800	-24.427	0.099
304.900	-38.216	0.100
305.000	-34.355	0.099
305.100	-39.601	0.099
305.200	-29.586	0.100
305.300	-22.162	0.099
305.400	-32.015	0.099
305.500	-41.025	0.099
305.600	-26.701	0.099
305.700	-26.036	0.099
305.800	-39.672	0.100
305.900	-37.883	0.099
306.000	-27.704	0.099
306.100	-17.504	0.100
306.200	-30.067	0.099
306.300	-33.803	0.099
306.400	-32.203	0.100
306.500	-48.229	0.099
306.600	-38.728	0.100
306.700	-58.991	0.099
306.800	-26.172	0.099
306.900	-33.859	0.099
307.000	-26.240	0.099
307.100	-41.503	0.099
307.200	-33.041	0.099
307.300	-45.151	0.099
307.400	-29.179	0.100
307.500	-27.512	0.100
307.600	-29.520	0.100
307.700	-43.061	0.100
307.800	-46.183	0.099
307.900	-15.100	0.099
308.000	-42.663	0.099
308.100	-38.911	0.099
308.200	-29.354	0.099
308.300	-28.484	0.100
308.400	-54.969	0.099
308.500	-45.634	0.100
308.600	-22.473	0.100
308.700	-35.003	0.100
308.800	-26.385	0.099
308.900	-28.879	0.100
309.000	-38.017	0.099
309.100	-36.068	0.099
309.200	-26.150	0.099
309.300	-54.909	0.099
309.400	-16.788	0.099
309.500	-27.887	0.099
309.600	-20.054	0.100
309.700	-38.448	0.100
309.800	-32.090	0.099
309.900	-21.951	0.100
310.000	-51.083	0.099
310.100	-19.073	0.100
310.200	-26.096	0.099
310.300	-21.186	0.099
310.400	-21.414	0.100
310.500	-35.331	0.100
310.600	-29.781	0.100
310.700	-15.545	0.100
310.800	-35.363	0.100
310.900	-19.149	0.100
311.000	-47.775	0.100
311.100	-30.126	0.100
311.200	-34.147	0.100
311.300	-25.228	0.099
311.400	-19.237	0.099
311.500	-36.345	0.099
311.600	-53.371	0.099
311.700	-18.950	0.099
311.800	-32.192	0.099
311.900	-29.020	0.100
312.000	-41.703	0.099
312.100	-36.246	0.099
312.200	-32.687	0.099
312.300	-27.151	0.100
312.400	-39.130	0.099
312.500	-25.833	0.099
312.600	-40.321	0.100
312.700	-39.589	0.099
312.800	-22.729	0.100
312.900	-42.221	0.099
313.000	-23.647	0.100
313.100	-17.576	0.099
313.200	-27.582	0.099
313.300	-26.957	0.099
313.400	-34.438	0.100
313.500	-30.230	0.099
313.600	-37.188	0.099
313.700	-42.612	0.099
313.800	-34.803	0.099
313.900	-16.207	0.099
314.000	-39.403	0.099
314.100	-33.896	0.099
314.200	-41.738	0.100
314.300	-27.157	0.100
314.400	-17.801	0.100
314.500	-46.690	0.099
314.600	-40.857	0.100
314.700	-33.510	0.099
314.800	-27.894	0.099
314.900	-37.300	0.099
315.000	-26.096	0.099
315.100	-34.407	0.099
315.200	-39.354	0.099
315.300	-20.007	0.099
315.400	-50.758	0.100
315.500	-29.540	0.099
315.600	-38.091	0.100
315.700	-37.972	0.099
315.800	-31.634	0.099
315.900	-34.247	0.099
316.000	-33.476	0.100
316.100	-37.076	0.100
316.200	-44.201	0.099
316.300	-19.264	0.100
316.400	-18.741	0.099
316.500	-19.760	0.099
316.600	-36.160	0.099
316.700	-32.951	0.099
316.800	-26.932	0.100
316.900	-28.583	0.099
317.000	-33.565	0.100
317.100	-24.686	0.100
317.200	-26.982	0.100
317.300	-26.725	0.100
317.400	-42.348	0.100
317.500	-26.640	0.099
317.600	-32.992	0.099
317.700	-30.634	0.100
317.800	-35.057	0.099
317.900	-33.358	0.099
318.000	-44.421	0.099
318.100	-34.568	0.099
318.200	-42.982	0.099
318.300	-36.007	0.100
318.400	-36.745	0.099
318.500	-29.447	0.099
318.600	-28.325	0.099
318.700	-44.573	0.099
318.800	-18.490	0.099
318.900	-35.515	0.099
319.000	-28.864	0.099
319.100	-29.279	0.099
319.200	-40.634	0.099
319.300	-43.292	0.099
319.400	-11.437	0.100
319.500	-38.451	0.099
319.600	-30.749	0.099
319.700	-31.427	0.099
319.800	-16.702	0.099
319.900	-33.871	0.100
320.000	-28.434	0.099
320.100	-9.555	0.100
320.200	-23.215	0.100
320.300	-41.568	0.100
320.400	-32.890	0.100
320.500	-35.902	0.099
320.600	-6.822	0.099
320.700	-31.966	0.099
320.800	-15.780	0.100
320.900	-36.596	0.100
321.000	-31.418	0.099
321.100	-30.828	0.100
321.200	-14.409	0.099
321.300	-39.730	0.100
321.400	-35.011	0.099
321.500	-28.684	0.100
321.600	-29.575	0.100
321.700	-44.239	0.099
321.800	-25.374	0.100
321.900	-26.371	0.100
322.000	-16.148	0.099
322.100	-33.158	0.099
322.200	-24.704	0.100
322.300	-29.015	0.099
322.400	-29.228	0.099
322.500	-47.484	0.100
322.600	-33.093	0.100
322.700	-21.843	0.100
322.800	-24.177	0.100
322.900	-29.941	0.099
323.000	-30.552	0.100
323.100	-19.323	0.099
323.200	-35.685	0.100
323.300	-33.883	0.099
323.400	-31.056	0.100
323.500	-18.966	0.100
323.600	-35.336	0.099
323.700	-40.382	0.099
323.800	-25.662	0.100
323.900	-22.066	0.099
324.000	-30.574	0.100
324.100	-45.625	0.100
324.200	-28.105	0.099
324.300	-27.766	0.100
324.400	-28.177	0.100
324.500	-25.427	0.100
324.600	-23.822	0.100
324.700	-31.737	0.100
324.800	-19.247	0.100
324.900	-31.335	0.099
325.000	-30.494	0.100
325.100	-38.238	0.100
325.200	-27.661	0.100
325.300	-50.396	0.099
325.400	-26.967	0.099
325.500	-29.089	0.100
325.600	-49.113	0.100
325.700	-26.422	0.100
325.800	-24.178	0.100
325.900	-23.590	0.100
326.000	-53.047	0.099
326.100	-23.404	0.099
326.200	-28.585	0.100
326.300	-24.541	0.099
326.400	-28.049	0.100
326.500	-31.814	0.100
326.600	-31.949	0.100
326.700	-30.938	0.100
326.800	-37.659	0.099
326.900	-35.427	0.100
327.000	-27.148	0.099
327.100	-39.421	0.099
327.200	-41.427	0.099
327.300	-24.326	0.100
327.400	-24.522	0.100
327.500	-34.856	0.099
327.600	-37.765	0.100
327.700	-33.319	0.100
327.800	-20.671	0.100
327.900	-40.323	0.099
328.000	-31.535	0.100
328.100	-23.496	0.100
328.200	-27.591	0.099
328.300	-26.606	0.099
328.400	-16.951	0.100
328.500	-23.065	0.100
328.600	-41.528	0.099
328.700	-14.896	0.100
328.800	-38.291	0.100
328.900	-26.067	0.100
329.000	-43.226	0.100
329.100	-24.640	0.100
329.200	-46.814	0.100
329.300	-12.095	0.099
329.400	-18.037	0.099
329.500	-35.605	0.100
329.600	-36.317	0.100
329.700	-15.444	0.100
329.800	-52.836	0.100
329.900	-7.039	0.100
330.000	-14.278	0.100
330.100	-28.956	0.100
330.200	0.546	0.100
330.300	-3.871	0.100
330.400	4.815	0.100
330.500	16.915	0.100
330.600	26.002	0.100
330.700	25.501	0.100
330.800	30.900	0.100
330.900	8.092	0.100
331.000	24.949	0.100
331.100	30.311	0.100
331.200	34.908	0.100
331.300	26.211	0.100
331.400	25.578	0.099
331.500	21.165	0.100
331.600	18.617	0.099
331.700	23.134	0.100
331.800	12.474	0.100
331.900	41.092	0.100
332.000	23.895	0.100
332.100	30.615	0.100
332.200	4.827	0.100
332.300	22.508	0.100
332.400	18.791	0.100
332.500	2.052	0.100
332.600	27.128	0.100
332.700	6.668	0.100
332.800	12.286	0.100
332.900	4.448	0.100
333.000	20.667	0.100
333.100	-3.688	0.100
333.200	6.951	0.100
333.300	10.036	0.099
333.400	18.848	0.100
333.500	-14.944	0.100
333.600	-1.514	0.099
333.700	15.348	0.100
333.800	11.238	0.100
333.900	7.167	0.100
334.000	13.200	0.100
334.100	22.058	0.099
334.200	10.963	0.100
334.300	8.789	0.099
334.400	23.282	0.100
334.500	5.247	0.100
334.600	14.408	0.100
334.700	13.437	0.100
334.800	6.244	0.100
334.900	-3.651	0.100
335.000	16.997	0.100
335.100	10.868	0.100
335.200	47.483	0.100
335.300	29.540	0.100
335.400	19.472	0.100
335.500	4.007	0.100
335.600	15.914	0.100
335.700	6.547	0.099
335.800	14.722	0.100
335.900	5.877	0.100
336.000	31.748	0.100
336.100	12.967	0.100
336.200	24.619	0.100
336.300	16.673	0.100
336.400	13.599	0.100
336.500	11.311	0.100
336.600	31.822	0.100
336.700	10.933	0.100
336.800	35.919	0.100
336.900	15.635	0.100
337.000	8.023	0.100
337.100	16.285	0.100
337.200	22.630	0.100
337.300	14.076	0.099
337.400	22.983	0.099
337.500	40.745	0.099
337.600	16.312	0.100
337.700	31.242	0.100
337.800	31.346	0.100
337.900	26.314	0.100
338.000	19.283	0.100
338.100	30.471	0.100
338.200	19.665	0.100
338.300	27.931	0.100
338.400	0.714	0.100
338.500	42.397	0.100
338.600	37.074	0.100
338.700	20.585	0.099
338.800	34.405	0.100
338.900	14.092	0.100
339.000	25.856	0.100
339.100	21.894	0.099
339.200	29.313	0.100
339.300	25.113	0.100
339.400	28.577	0.100
339.500	22.865	0.100
339.600	33.536	0.100
339.700	29.091	0.100
339.800	39.093	0.100
339.900	26.518	0.100
340.000	33.684	0.100
340.100	17.817	0.100
340.200	33.907	0.100
340.300	29.502	0.100
340.400	47.486	0.100
340.500	34.591	0.100
340.600	33.967	0.100
340.700	31.020	0.100
340.800	32.571	0.100
340.900	12.620	0.099
341.000	45.458	0.100
341.100	40.972	0.100
341.200	33.125	0.100
341.300	51.940	0.100
341.400	23.544	0.099
341.500	38.892	0.100
341.600	44.626	0.100
341.700	33.090	0.100
341.800	41.529	0.100
341.900	20.847	0.100
342.000	36.292	0.100
342.100	51.106	0.100
342.200	36.698	0.100
342.300	43.332	0.100
342.400	29.477	0.100
342.500	34.209	0.100
342.600	41.626	0.099
342.700	37.807	0.100
342.800	36.836	0.100
342.900	44.105	0.100
343.000	55.356	0.100
343.100	40.062	0.100
343.200	34.275	0.100
343.300	48.827	0.099
343.400	23.986	0.099
343.500	34.678	0.100
343.600	47.203	0.100
343.700	41.435	0.100
343.800	37.492	0.100
343.900	41.258	0.100
344.000	34.334	0.100
344.100	40.062	0.100
344.200	44.572	0.100
344.300	54.931	0.100
344.400	40.992	0.100
344.500	49.170	0.100
344.600	52.609	0.100
344.700	30.644	0.100
344.800	62.070	0.100
344.900	40.352	0.100
345.000	38.757	0.100
345.100	54.978	0.100
345.200	49.489	0.100
345.300	34.228	0.100
345.400	56.581	0.099
345.500	34.448	0.100
345.600	60.585	0.100
345.700	40.304	0.100
345.800	43.885	0.100
345.900	54.177	0.100
346.000	51.000	0.100
346.100	49.540	0.100
346.200	62.676	0.100
346.300	48.309	0.100
346.400	54.872	0.100
346.500	41.154	0.100
346.600	46.213	0.100
346.700	57.320	0.100
346.800	33.944	0.100
346.900	55.005	0.100
347.000	48.678	0.100
347.100	31.188	0.100
347.200	51.519	0.100
347.300	67.048	0.100
347.400	52.887	0.100
347.500	48.609	0.100
347.600	52.726	0.100
347.700	63.960	0.100
347.800	56.966	0.100
347.900	56.060	0.100
348.000	50.843	0.100
348.100	61.309	0.100
348.200	51.973	0.100
348.300	36.530	0.100
348.400	60.163	0.100
348.500	55.808	0.100
348.600	54.523	0.100
348.700	61.357	0.100
348.800	43.381	0.100
348.900	31.500	0.100
349.000	48.456	0.100
349.100	66.755	0.100
349.200	55.354	0.100
349.300	55.844	0.100
349.400	57.139	0.100
349.500	47.039	0.100
349.600	55.787	0.100
349.700	54.587	0.100
349.800	63.285	0.100
349.900	62.279	0.100
350.000	74.633	0.099
350.100	46.241	0.099
350.200	61.216	0.100
350.300	51.593	0.100
350.400	59.807	0.100
350.500	60.650	0.100
350.600	46.068	0.100
350.700	50.359	0.100
350.800	67.858	0.100
350.900	47.723	0.100
351.000	60.004	0.100
351.100	69.873	0.099
351.200	53.009	0.100
351.300	46.669	0.100
351.400	68.452	0.100
351.500	57.208	0.100
351.600	72.629	0.100
351.700	57.953	0.100
351.800	64.557	0.100
351.900	63.447	0.100
352.000	54.963	0.100
352.100	74.987	0.100
352.200	62.612	0.100
352.300	60.365	0.100
352.400	44.357	0.100
352.500	54.324	0.100
352.600	64.740	0.100
352.700	73.306	0.100
352.800	72.225	0.099
352.900	53.758	0.100
353.000	67.847	0.100
353.100	51.340	0.100
353.200	54.564	0.100
353.300	78.200	0.100
353.400	58.384	0.100
353.500	59.071	0.100
353.600	49.736	0.100
353.700	69.020	0.100
353.800	61.845	0.100
353.900	56.413	0.100
354.000	57.059	0.100
354.100	64.181	0.100
354.200	66.507	0.100
354.300	73.235	0.100
354.400	53.010	0.100
354.500	81.840	0.100
354.600	68.779	0.100
354.700	67.878	0.100
354.800	59.311	0.100
354.900	60.347	0.100
355.000	70.820	0.100
355.100	67.902	0.100
355.200	50.796	0.100
355.300	79.739	0.100
355.400	78.713	0.100
355.500	55.970	0.100
355.600	86.398	0.100
355.700	56.377	0.099
355.800	57.990	0.100
355.900	74.157	0.100
356.000	70.014	0.100
356.100	66.355	0.100
356.200	75.835	0.100
356.300	68.876	0.100
356.400	67.714	0.100
356.500	83.103	0.100
356.600	77.404	0.100
356.700	56.555	0.100
356.800	79.954	0.100
356.900	70.389	0.099
357.000	55.894	0.100
357.100	67.832	0.100
357.200	71.071	0.100
357.300	76.937	0.100
357.400	67.368	0.100
357.500	39.545	0.099
357.600	69.015	0.099
357.700	76.646	0.100
357.800	79.928	0.100
357.900	92.367	0.100
358.000	49.490	0.100
358.100	72.649	0.100
358.200	75.095	0.100
358.300	70.748	0.100
358.400	74.934	0.099
358.500	67.689	0.099
358.600	70.377	0.100
358.700	75.153	0.099
358.800	79.195	0.100
358.900	69.372	0.100
359.000	70.064	0.100
359.100	73.736	0.100
359.200	71.211	0.099
359.300	73.029	0.100
359.400	84.338	0.099
359.500	79.615	0.100
359.600	78.495	0.100
359.700	69.790	0.100
359.800	63.357	0.100
359.900	76.721	0.100
360.000	92.897	0.100
360.100	52.213	0.099
360.200	84.550	0.100
360.300	78.103	0.100
360.400	85.943	0.100
360.500	61.591	0.100
360.600	86.025	0.100
360.700	64.033	0.100
360.800	66.597	0.100
360.900	93.922	0.099
361.000	87.091	0.100
361.100	87.973	0.100
361.200	81.921	0.100
361.300	89.447	0.100
361.400	74.282	0.100
361.500	83.181	0.100
361.600	70.556	0.100
361.700	79.896	0.100
361.800	78.661	0.100
361.900	87.799	0.100
362.000	89.266	0.099
362.100	73.742	0.099
362.200	74.731	0.100
362.300	81.061	0.099
362.400	87.359	0.100
362.500	72.632	0.100
362.600	70.647	0.099
362.700	97.576	0.100
362.800	72.309	0.099
362.900	86.684	0.100
363.000	88.456	0.100
363.100	77.644	0.100
363.200	88.961	0.100
363.300	79.773	0.100
363.400	77.816	0.100
363.500	71.433	0.100
363.600	81.830	0.100
363.700	94.228	0.100
363.800	81.621	0.100
363.900	78.004	0.099
364.000	72.786	0.100
364.100	78.543	0.100
364.200	77.180	0.100
364.300	70.349	0.100
364.400	74.372	0.100
364.500	71.019	0.100
364.600	70.762	0.100
364.700	78.472	0.100
364.800	85.164	0.100
364.900	67.750	0.099
365.000	74.207	0.100
365.100	87.372	0.099
365.200	72.895	0.100
365.300	83.897	0.100
365.400	90.099	0.100
365.500	79.905	0.100
365.600	75.310	0.099
365.700	81.391	0.100
365.800	95.098	0.100
365.900	77.007	0.100
366.000	79.793	0.100
366.100	76.091	0.100
366.200	78.698	0.100
366.300	64.660	0.100
366.400	79.863	0.099
366.500	86.504	0.099
366.600	69.831	0.100
366.700	70.761	0.100
366.800	94.500	0.100
366.900	83.604	0.100
367.000	69.608	0.100
367.100	67.317	0.100
367.200	89.182	0.100
367.300	87.391	0.099
367.400	82.957	0.100
367.500	87.574	0.100
367.600	78.668	0.100
367.700	73.110	0.100
367.800	83.070	0.100
367.900	76.931	0.100
368.000	98.167	0.100
368.100	78.967	0.100
368.200	73.598	0.100
368.300	77.802	0.100
368.400	97.043	0.100
368.500	87.562	0.100
368.600	80.091	0.100
368.700	98.581	0.100
368.800	70.634	0.100
368.900	66.740	0.100
369.000	72.921	0.100
369.100	89.290	0.100
369.200	80.727	0.100
369.300	86.419	0.100
369.400	68.660	0.100
369.500	82.844	0.100
369.600	80.340	0.100
369.700	77.342	0.100
369.800	68.771	0.100
369.900	84.577	0.100
370.000	88.568	0.100
370.100	86.024	0.100
370.200	89.193	0.100
370.300	71.382	0.100
370.400	77.609	0.100
370.500	66.538	0.100
370.600	82.071	0.100
370.700	69.766	0.100
370.800	69.856	0.100
370.900	84.840	0.099
371.000	79.009	0.100
371.100	84.721	0.100
371.200	75.711	0.099
371.300	75.850	0.100
371.400	72.528	0.100
371.500	76.519	0.100
371.600	74.743	0.099
371.700	74.423	0.100
371.800	81.602	0.100
371.900	66.870	0.100
372.000	81.245	0.100
372.100	83.028	0.099
372.200	69.892	0.100
372.300	69.133	0.100
372.400	83.176	0.099
372.500	90.287	0.100
372.600	80.054	0.100
372.700	87.905	0.100
372.800	75.233	0.100
372.900	80.995	0.100
373.000	75.489	0.100
373.100	77.757	0.100
373.200	77.695	0.100
373.300	74.136	0.100
373.400	80.766	0.099
373.500	82.713	0.100
373.600	81.027	0.100
373.700	85.862	0.100
373.800	65.185	0.100
373.900	69.757	0.100
374.000	73.257	0.100
374.100	71.545	0.100
374.200	89.858	0.100
374.300	87.234	0.100
374.400	79.207	0.100
374.500	68.462	0.100
374.600	81.036	0.100
374.700	61.073	0.100
374.800	80.156	0.100
374.900	82.212	0.100
375.000	76.254	0.100
375.100	57.694	0.100
375.200	86.126	0.100
375.300	95.579	0.100
375.400	71.041	0.100
375.500	76.434	0.100
375.600	63.538	0.100
375.700	67.755	0.100
375.800	85.081	0.100
375.900	69.685	0.099
376.000	89.333	0.100
376.100	95.696	0.100
376.200	69.192	0.100
376.300	71.248	0.099
376.400	89.027	0.099
376.500	60.266	0.100
376.600	75.187	0.100
376.700	82.212	0.100
376.800	78.294	0.099
376.900	70.592	0.100
377.000	72.342	0.100
377.100	81.819	0.100
377.200	79.525	0.100
377.300	84.850	0.100
377.400	68.892	0.100
377.500	85.133	0.100
377.600	64.374	0.100
377.700	74.435	0.100
377.800	85.311	0.100
377.900	79.032	0.100
378.000	72.527	0.100
378.100	64.210	0.100
378.200	82.410	0.100
378.300	69.853	0.099
378.400	82.350	0.100
378.500	74.408	0.100
378.600	64.120	0.100
378.700	69.294	0.100
378.800	78.579	0.100
378.900	74.796	0.100
379.000	74.462	0.100
379.100	68.517	0.100
379.200	77.533	0.100
379.300	77.992	0.099
379.400	74.450	0.099
379.500	77.407	0.099
379.600	71.885	0.099
379.700	81.605	0.099
379.800	61.117	0.100
379.900	66.303	0.100
380.000	80.699	0.100
380.100	83.702	0.100
380.200	77.108	0.100
380.300	80.666	0.100
380.400	77.735	0.100
380.500	54.784	0.100
380.600	78.585	0.100
380.700	67.955	0.100
380.800	56.364	0.100
380.900	81.578	0.100
381.000	79.255	0.100
381.100	77.180	0.100
381.200	62.478	0.100
381.300	75.420	0.100
381.400	64.829	0.100
381.500	76.264	0.100
381.600	76.197	0.100
381.700	56.427	0.100
381.800	53.399	0.100
381.900	72.981	0.100
382.000	83.873	0.100
382.100	84.222	0.100
382.200	73.278	0.099
382.300	68.140	0.100
382.400	72.241	0.100
382.500	76.710	0.100
382.600	84.911	0.100
382.700	71.089	0.100
382.800	71.405	0.100
382.900	72.641	0.100
383.000	73.485	0.100
383.100	64.882	0.100
383.200	55.475	0.100
383.300	80.931	0.100
383.400	75.132	0.100
383.500	52.788	0.100
383.600	86.067	0.100
383.700	76.071	0.100
383.800	69.418	0.100
383.900	63.057	0.100
384.000	64.360	0.100
384.100	56.895	0.099
384.200	64.706	0.100
384.300	80.123	0.100
384.400	66.305	0.100
384.500	78.714	0.100
384.600	72.981	0.100
384.700	86.632	0.099
384.800	71.411	0.100
384.900	58.622	0.100
385.000	73.659	0.100
385.100	75.720	0.100
385.200	57.939	0.100
385.300	70.407	0.100
385.400	65.309	0.100
385.500	75.562	0.100
385.600	67.029	0.100
385.700	68.187	0.100
385.800	88.215	0.100
385.900	75.954	0.100
386.000	72.901	0.100
386.100	61.264	0.100
386.200	68.684	0.100
386.300	64.690	0.100
386.400	77.368	0.100
386.500	63.930	0.100
386.600	77.998	0.100
386.700	72.362	0.100
386.800	69.980	0.100
386.900	65.914	0.100
387.000	81.899	0.100
387.100	83.370	0.100
387.200	64.108	0.099
387.300	66.231	0.099
387.400	75.465	0.100
387.500	77.739	0.099
387.600	58.517	0.100
387.700	71.348	0.100
387.800	66.427	0.100
387.900	106.329	0.100
388.000	68.977	0.099
388.100	69.222	0.099
388.200	82.257	0.100
388.300	64.382	0.100
388.400	50.226	0.100
388.500	78.875	0.100
388.600	85.183	0.100
388.700	65.587	0.100
388.800	62.070	0.100
388.900	77.806	0.100
389.000	71.085	0.100
389.100	55.911	0.100
389.200	74.783	0.100
389.300	59.657	0.100
389.400	73.909	0.100
389.500	79.779	0.100
389.600	87.192	0.100
389.700	59.776	0.100
389.800	64.180	0.100
389.900	81.606	0.100
390.000	83.183	0.100
390.100	52.029	0.100
390.200	56.713	0.100
390.300	36.296	0.100
390.400	23.660	0.100
390.500	26.278	0.100
390.600	1.605	0.100
390.700	10.899	0.100
390.800	0.555	0.100
390.900	-12.686	0.100
391.000	-14.572	0.100
391.100	-24.037	0.100
391.200	-31.860	0.100
391.300	-24.927	0.100
391.400	-35.134	0.100
391.500	-52.594	0.100
391.600	-41.090	0.100
391.700	-51.644	0.100
391.800	-66.883	0.100
391.900	-60.903	0.099
392.000	-44.727	0.099
392.100	-42.846	0.100
392.200	-63.972	0.099
392.300	-51.304	0.099
392.400	-83.551	0.100
392.500	-55.751	0.099
392.600	-57.405	0.100
392.700	-63.993	0.100
392.800	-67.599	0.100
392.900	-62.912	0.099
393.000	-67.942	0.100
393.100	-72.365	0.100
393.200	-59.626	0.100
393.300	-65.367	0.100
393.400	-58.839	0.100
393.500	-45.462	0.100
393.600	-66.330	0.100
393.700	-57.128	0.099
393.800	-74.071	0.099
393.900	-64.260	0.099
394.000	-53.928	0.100
394.100	-54.615	0.100
394.200	-68.782	0.100
394.300	-73.625	0.100
394.400	-59.547	0.099
394.500	-45.075	0.099
394.600	-47.053	0.100
394.700	-56.280	0.100
394.800	-63.064	0.100
394.900	-50.461	0.100
395.000	-54.599	0.100
395.100	-58.708	0.100
395.200	-45.482	0.100
395.300	-63.335	0.100
395.400	-53.531	0.100
395.500	-46.160	0.100
395.600	-44.925	0.100
395.700	-58.498	0.100
395.800	-49.742	0.100
395.900	-44.236	0.100
396.000	-54.982	0.100
396.100	-51.014	0.100
396.200	-51.324	0.099
396.300	-53.303	0.099
396.400	-55.884	0.100
396.500	-44.996	0.100
396.600	-51.882	0.100
396.700	-54.370	0.100
396.800	-60.303	0.100
396.900	-45.685	0.100
397.000	-43.345	0.099
397.100	-48.922	0.100
397.200	-36.809	0.100
397.300	-56.376	0.100
397.400	-66.519	0.100
397.500	-52.239	0.099
397.600	-60.506	0.100
397.700	-51.663	0.100
397.800	-25.498	0.100
397.900	-59.226	0.100
398.000	-52.504	0.100
398.100	-54.713	0.100
398.200	-46.038	0.100
398.300	-34.748	0.100
398.400	-62.712	0.100
398.500	-69.839	0.100
398.600	-51.648	0.100
398.700	-43.335	0.099
398.800	-60.078	0.100
398.900	-56.991	0.100
399.000	-46.624	0.100
399.100	-54.361	0.099
399.200	-52.502	0.099
399.300	-53.386	0.100
399.400	-49.025	0.100
399.500	-65.727	0.100
399.600	-54.822	0.100
399.700	-41.531	0.100
399.800	-53.399	0.100
399.900	-54.577	0.099
400.000	-59.148	0.100
400.100	-54.299	0.100
400.200	-45.159	0.100
400.300	-60.648	0.100
400.400	-56.520	0.099
400.500	-36.021	0.100
400.600	-63.778	0.100
400.700	-40.296	0.099
400.800	-68.405	0.099
400.900	-62.859	0.099
401.000	-47.105	0.099
401.100	-43.283	0.100
401.200	-33.537	0.100
401.300	-60.020	0.100
401.400	-42.175	0.099
401.500	-48.867	0.099
401.600	-55.076	0.099
401.700	-50.251	0.100
401.800	-48.534	0.099
401.900	-61.311	0.100
402.000	-38.079	0.100
402.100	-63.338	0.099
402.200	-54.826	0.100
402.300	-57.057	0.100
402.400	-57.754	0.099
402.500	-66.261	0.099
402.600	-53.546	0.100
402.700	-72.091	0.100
402.800	-38.645	0.100
402.900	-49.878	0.099
403.000	-57.602	0.099
403.100	-72.667	0.100
403.200	-60.258	0.099
403.300	-44.850	0.100
403.400	-39.427	0.099
403.500	-55.140	0.100
403.600	-49.821	0.099
403.700	-60.381	0.100
403.800	-48.715	0.099
403.900	-51.119	0.100
404.000	-46.358	0.100
404.100	-55.050	0.100
404.200	-55.068	0.099
404.300	-44.864	0.099
404.400	-54.302	0.100
404.500	-68.056	0.099
404.600	-38.644	0.100
404.700	-49.090	0.099
404.800	-53.287	0.099
404.900	-50.093	0.100
405.000	-51.581	0.100
405.100	-52.049	0.099
405.200	-61.901	0.100
405.300	-52.243	0.099
405.400	-55.952	0.099
405.500	-47.959	0.100
405.600	-44.763	0.099
405.700	-37.972	0.099
405.800	-53.563	0.099
405.900	-63.147	0.099
406.000	-47.061	0.099
406.100	-48.791	0.099
406.200	-48.944	0.100
406.300	-53.702	0.099
406.400	-45.931	0.100
406.500	-53.893	0.099
406.600	-34.291	0.100
406.700	-70.093	0.100
406.800	-50.357	0.099
406.900	-35.957	0.099
407.000	-46.751	0.099
407.100	-47.648	0.100
407.200	-47.463	0.100
407.300	-50.974	0.100
407.400	-67.933	0.100
407.500	-39.176	0.100
407.600	-47.714	0.099
407.700	-54.608	0.100
407.800	-60.139	0.100
407.900	-41.780	0.099
408.000	-46.935	0.100
408.100	-61.879	0.099
408.200	-47.545	0.100
408.300	-42.081	0.099
408.400	-56.482	0.099
408.500	-49.941	0.100
408.600	-50.852	0.100
408.700	-44.246	0.100
408.800	-47.054	0.100
408.900	-47.632	0.100
409.000	-52.121	0.100
409.100	-47.418	0.100
409.200	-54.572	0.099
409.300	-42.112	0.100
409.400	-42.258	0.100
409.500	-61.471	0.099
409.600	-56.880	0.099
409.700	-69.498	0.100
409.800	-49.605	0.099
409.900	-45.932	0.099
410.000	-49.342	0.099
410.100	-60.451	0.099
410.200	-43.966	0.100
410.300	-23.515	0.100
410.400	-49.690	0.099
410.500	-59.065	0.100
410.600	-47.052	0.099
410.700	-50.091	0.100
410.800	-52.091	0.100
410.900	-52.108	0.099
411.000	-50.038	0.100
411.100	-43.931	0.100
411.200	-46.718	0.099
411.300	-64.024	0.099
411.400	-48.463	0.099
411.500	-42.354	0.099
411.600	-61.205	0.099
411.700	-47.790	0.099
411.800	-56.228	0.100
411.900	-53.214	0.099
412.000	-44.663	0.100
412.100	-46.815	0.100
412.200	-39.920	0.099
412.300	-60.601	0.100
412.400	-48.309	0.099
412.500	-42.599	0.100
412.600	-55.037	0.099
412.700	-31.980	0.099
412.800	-34.458	0.099
412.900	-48.891	0.099
413.000	-51.543	0.099
413.100	-34.961	0.099
413.200	-43.535	0.100
413.300	-61.734	0.100
413.400	-52.850	0.099
413.500	-32.141	0.100
413.600	-34.695	0.099
413.700	-39.483	0.099
413.800	-34.974	0.100
413.900	-48.794	0.099
414.000	-50.444	0.100
414.100	-55.505	0.099
414.200	-52.295	0.099
414.300	-43.358	0.099
414.400	-30.818	0.099
414.500	-30.570	0.099
414.600	-47.670	0.099
414.700	-29.337	0.099
414.800	-40.697	0.099
414.900	-46.879	0.099
415.000	-50.369	0.100
415.100	-45.565	0.100
415.200	-36.721	0.100
415.300	-50.334	0.100
415.400	-51.251	0.099
415.500	-41.940	0.100
415.600	-46.424	0.100
415.700	-49.611	0.099
415.800	-43.065	0.099
415.900	-32.845	0.100
416.000	-35.191	0.099
416.100	-35.101	0.100
416.200	-33.757	0.100
416.300	-39.647	0.100
416.400	-57.375	0.099
416.500	-40.287	0.100
416.600	-44.471	0.099
416.700	-55.912	0.100
416.800	-28.237	0.100
416.900	-40.681	0.099
417.000	-38.616	0.100
417.100	-51.273	0.100
417.200	-26.890	0.100
417.300	-61.667	0.099
417.400	-43.513	0.100
417.500	-40.006	0.100
417.600	-49.119	0.100
417.700	-37.546	0.099
417.800	-34.868	0.100
417.900	-42.241	0.100
418.000	-40.668	0.099
418.100	-45.945	0.100
418.200	-36.149	0.099
418.300	-51.564	0.099
418.400	-39.257	0.099
418.500	-28.831	0.100
418.600	-42.638	0.100
418.700	-39.707	0.099
418.800	-42.304	0.100
418.900	-63.877	0.099
419.000	-24.489	0.100
419.100	-47.861	0.100
419.200	-43.955	0.100
419.300	-36.522	0.099
419.400	-57.455	0.099
419.500	-40.363	0.099
419.600	-36.254	0.099
419.700	-29.920	0.099
419.800	-40.890	0.100
419.900	-38.360	0.100
420.000	-47.963	0.099
420.100	-47.548	0.099
420.200	-45.710	0.099
420.300	-38.795	0.099
420.400	-44.895	0.099
420.500	-54.047	0.100
420.600	-51.616	0.099
420.700	-44.527	0.099
420.800	-34.789	0.099
420.900	-40.096	0.099
421.000	-43.383	0.099
421.100	-40.005	0.099
421.200	-54.245	0.100
421.300	-39.032	0.099
421.400	-43.437	0.099
421.500	-38.639	0.100
421.600	-51.143	0.100
421.700	-38.521	0.100
421.800	-57.956	0.099
421.900	-14.987	0.099
422.000	-33.440	0.100
422.100	-40.996	0.099
422.200	-24.443	0.100
422.300	-38.255	0.099
422.400	-49.897	0.099
422.500	-31.620	0.100
422.600	-39.910	0.099
422.700	-45.665	0.099
422.800	-33.370	0.100
422.900	-41.012	0.100
423.000	-45.105	0.100
423.100	-49.679	0.100
423.200	-32.837	0.099
423.300	-35.345	0.100
423.400	-43.432	0.100
423.500	-48.725	0.100
423.600	-52.091	0.099
423.700	-44.738	0.099
423.800	-34.593	0.099
423.900	-37.280	0.099
424.000	-33.066	0.099
424.100	-34.813	0.099
424.200	-44.711	0.099
424.300	-39.883	0.100
424.400	-48.152	0.100
424.500	-59.161	0.099
424.600	-39.817	0.099
424.700	-42.455	0.099
424.800	-38.875	0.099
424.900	-44.217	0.099
425.000	-33.157	0.099
425.100	-52.697	0.099
425.200	-18.668	0.100
425.300	-32.956	0.100
425.400	-32.294	0.100
425.500	-36.599	0.099
425.600	-43.600	0.099
425.700	-22.527	0.100
425.800	-39.632	0.100
425.900	-36.414	0.099
426.000	-56.587	0.100
426.100	-24.320	0.099
426.200	-34.752	0.100
426.300	-46.077	0.099
426.400	-49.789	0.099
426.500	-18.120	0.100
426.600	-39.788	0.100
426.700	-56.246	0.099
426.800	-60.684	0.099
426.900	-41.768	0.099
427.000	-30.786	0.099
427.100	-30.527	0.100
427.200	-38.285	0.099
427.300	-24.537	0.100
427.400	-32.442	0.099
427.500	-29.585	0.099
427.600	-51.415	0.099
427.700	-32.856	0.099
427.800	-37.289	0.099
427.900	-40.429	0.100
428.000	-35.830	0.099
428.100	-34.473	0.099
428.200	-43.370	0.100
428.300	-56.096	0.100
428.400	-40.330	0.100
428.500	-38.047	0.100
428.600	-19.917	0.100
428.700	-54.773	0.099
428.800	-44.968	0.100
428.900	-39.470	0.099
429.000	-36.132	0.099
429.100	-31.208	0.099
429.200	-34.979	0.099
429.300	-36.304	0.100
429.400	-39.108	0.100
429.500	-32.945	0.100
429.600	-26.299	0.100
429.700	-36.971	0.099
429.800	-28.821	0.099
429.900	-45.214	0.100
430.000	-43.445	0.099
430.100	-34.028	0.099
430.200	-42.503	0.100
430.300	-31.551	0.100
430.400	-48.712	0.099
430.500	-44.073	0.099
430.600	-55.444	0.099
430.700	-40.502	0.099
430.800	-25.282	0.100
430.900	-37.615	0.100
431.000	-36.650	0.100
431.100	-42.092	0.099
431.200	-29.776	0.099
431.300	-36.498	0.100
431.400	-32.826	0.100
431.500	-38.245	0.099
431.600	-33.348	0.100
431.700	-25.548	0.100
431.800	-46.388	0.099
431.900	-45.131	0.099
432.000	-37.883	0.099
432.100	-48.927	0.100
432.200	-42.974	0.100
432.300	-38.965	0.100
432.400	-36.775	0.100
432.500	-43.654	0.099
432.600	-16.751	0.099
432.700	-35.841	0.100
432.800	-18.539	0.100
432.900	-38.586	0.099
433.000	-22.091	0.100
433.100	-34.754	0.099
433.200	-54.154	0.099
433.300	-25.813	0.099
433.400	-36.286	0.099
433.500	-37.143	0.099
433.600	-30.045	0.099
433.700	-48.914	0.100
433.800	-33.605	0.100
433.900	-38.590	0.099
434.000	-42.492	0.099
434.100	-27.182	0.099
434.200	-38.648	0.099
434.300	-35.172	0.100
434.400	-46.877	0.100
434.500	-55.586	0.099
434.600	-38.206	0.099
434.700	-36.571	0.099
434.800	-38.314	0.099
434.900	-38.328	0.100
435.000	-48.005	0.099
435.100	-34.422	0.099
435.200	-39.914	0.100
435.300	-31.319	0.099
435.400	-54.050	0.099
435.500	-30.901	0.099
435.600	-45.937	0.099
435.700	-18.340	0.099
435.800	-41.374	0.100
435.900	-29.849	0.099
436.000	-31.083	0.099
436.100	-41.046	0.099
436.200	-49.755	0.099
436.300	-39.291	0.099
436.400	-48.009	0.099
436.500	-33.014	0.100
436.600	-39.610	0.099
436.700	-34.633	0.099
436.800	-43.631	0.099
436.900	-21.800	0.100
437.000	-20.213	0.099
437.100	-42.356	0.099
437.200	-37.286	0.099
437.300	-35.315	0.099
437.400	-23.221	0.100
437.500	-45.504	0.099
437.600	-37.837	0.099
437.700	-52.139	0.099
437.800	-40.444	0.099
437.900	-17.192	0.100
438.000	-38.174	0.099
438.100	-48.527	0.099
438.200	-29.571	0.099
438.300	-30.095	0.100
438.400	-39.471	0.099
438.500	-22.242	0.100
438.600	-35.675	0.099
438.700	-45.264	0.100
438.800	-53.440	0.099
438.900	-5.768	0.099
439.000	-23.503	0.099
439.100	-47.977	0.099
439.200	-35.068	0.100
439.300	-33.978	0.099
439.400	-36.012	0.099
439.500	-33.430	0.100
439.600	-36.356	0.100
439.700	-37.302	0.100
439.800	-27.429	0.100
439.900	-25.428	0.100
440.000	-41.059	0.099
440.100	-27.053	0.100
440.200	-42.104	0.099
440.300	-36.642	0.100
440.400	-37.519	0.099
440.500	-36.856	0.099
440.600	-34.745	0.099
440.700	-42.478	0.099
440.800	-33.660	0.100
440.900	-42.908	0.099
441.000	-25.308	0.099
441.100	-40.641	0.099
441.200	-43.201	0.099
441.300	-31.927	0.100
441.400	-70.147	0.099
441.500	-35.069	0.099
441.600	-28.475	0.099
441.700	-39.444	0.099
441.800	-35.992	0.099
441.900	-36.142	0.099
442.000	-34.928	0.100
442.100	-40.503	0.100
442.200	-29.755	0.099
442.300	-31.134	0.099
442.400	-22.810	0.099
442.500	-30.221	0.099
442.600	-30.638	0.099
442.700	-29.185	0.100
442.800	-30.920	0.099
442.900	-57.398	0.099
443.000	-48.537	0.099
443.100	-41.890	0.100
443.200	-38.811	0.099
443.300	-29.389	0.099
443.400	-37.903	0.099
443.500	-34.545	0.099
443.600	-53.567	0.099
443.700	-38.939	0.099
443.800	-51.537	0.099
443.900	-30.418	0.100
444.000	-35.392	0.099
444.100	-27.077	0.099
444.200	-33.179	0.099
444.300	-28.122	0.099
444.400	-39.461	0.099
444.500	-45.739	0.100
444.600	-39.445	0.099
444.700	-17.557	0.099
444.800	-34.691	0.099
444.900	-38.962	0.099
445.000	-13.801	0.099
445.100	-31.462	0.099
445.200	-40.899	0.099
445.300	-47.258	0.099
445.400	-35.899	0.099
445.500	-49.312	0.099
445.600	-33.599	0.100
445.700	-46.347	0.099
445.800	-27.416	0.099
445.900	-33.010	0.099
446.000	-39.215	0.099
446.100	-26.837	0.099
446.200	-35.256	0.099
446.300	-41.238	0.099
446.400	-36.410	0.099
446.500	-42.336	0.099
446.600	-22.349	0.099
446.700	-15.427	0.099
446.800	-35.923	0.099
446.900	-28.997	0.099
447.000	-29.674	0.099
447.100	-42.371	0.099
447.200	-32.813	0.099
447.300	-35.225	0.099
447.400	-19.396	0.099
447.500	-45.389	0.100
447.600	-37.304	0.100
447.700	-18.666	0.099
447.800	-22.882	0.100
447.900	-32.096	0.099
448.000	-28.030	0.099
448.100	-36.289	0.100
448.200	-42.334	0.099
448.300	-32.353	0.100
448.400	-27.009	0.099
448.500	-36.838	0.099
448.600	-30.234	0.099
448.700	-40.655	0.099
448.800	-41.961	0.100
448.900	-24.919	0.099
449.000	-60.806	0.100
449.100	-41.688	0.100
449.200	-28.721	0.099
449.300	-33.927	0.100
449.400	-18.305	0.099
449.500	-36.593	0.099
449.600	-36.869	0.099
449.700	-27.862	0.100
449.800	-28.738	0.099
449.900	-40.126	0.099
450.000	-42.652	0.099
450.100	-27.181	0.100
450.200	-35.582	0.099
450.300	-21.430	0.099
450.400	-34.491	0.099
450.500	-31.792	0.099
450.600	-30.242	0.100
450.700	-37.401	0.100
450.800	-44.962	0.099
450.900	-35.973	0.100
451.000	-27.300	0.099
451.100	-31.091	0.100
451.200	-23.248	0.099
451.300	-50.768	0.099
451.400	-42.252	0.099
451.500	-33.827	0.100
451.600	-33.994	0.099
451.700	-32.577	0.099
451.800	-31.545	0.100
451.900	-33.065	0.099
452.000	-28.274	0.099
452.100	-19.833	0.100
452.200	-35.739	0.100
452.300	-26.099	0.099
452.400	-39.648	0.099
452.500	-48.221	0.099
452.600	-37.234	0.099
452.700	-25.756	0.099
452.800	-17.738	0.100
452.900	-18.781	0.100
453.000	-21.297	0.100
453.100	-57.728	0.099
453.200	-31.598	0.099
453.300	-48.363	0.099
453.400	-12.272	0.100
453.500	-36.032	0.100
453.600	-31.039	0.099
453.700	-36.202	0.099
453.800	-31.662	0.100
453.900	-44.520	0.099
454.000	-46.594	0.100
454.100	-30.716	0.100
454.200	-26.281	0.099
454.300	-37.420	0.100
454.400	-38.075	0.100
454.500	-33.888	0.099
454.600	-41.911	0.100
454.700	-37.543	0.100
454.800	-45.828	0.099
454.900	-23.204	0.099
455.000	-24.598	0.099
455.100	-39.674	0.100
455.200	-39.419	0.100
455.300	-39.767	0.099
455.400	-25.627	0.100
455.500	-41.693	0.100
455.600	-30.360	0.099
455.700	-22.580	0.100
455.800	-31.476	0.099
455.900	-36.610	0.099
456.000	-37.959	0.100
456.100	-48.999	0.099
456.200	-21.158	0.099
456.300	-31.500	0.099
456.400	-48.604	0.099
456.500	-11.640	0.100
456.600	-30.583	0.100
456.700	-37.676	0.100
456.800	-37.862	0.099
456.900	-27.618	0.099
457.000	-32.380	0.100
457.100	-45.378	0.099
457.200	-28.341	0.099
457.300	-37.108	0.100
457.400	-41.139	0.099
457.500	-46.608	0.099
457.600	-49.049	0.099
457.700	-29.807	0.099
457.800	-25.924	0.099
457.900	-59.221	0.099
458.000	-47.449	0.099
458.100	-44.788	0.099
458.200	-30.467	0.099
458.300	-22.914	0.100
458.400	-44.678	0.099
458.500	-20.942	0.100
458.600	-27.079	0.099
458.700	-36.618	0.099
458.800	-36.752	0.099
458.900	-36.037	0.099
459.000	-38.970	0.099
459.100	-37.590	0.099
459.200	-35.359	0.099
459.300	-25.540	0.099
459.400	-23.705	0.099
459.500	-35.630	0.099
459.600	-26.162	0.099
459.700	-46.190	0.099
459.800	-13.373	0.100
459.900	-29.831	0.100
460.000	-44.388	0.099
460.100	-40.095	0.099
460.200	-25.713	0.099
460.300	-28.496	0.099
460.400	-44.770	0.100
460.500	-35.514	0.099
460.600	-32.059	0.099
460.700	-22.316	0.100
460.800	-43.918	0.100
460.900	-31.597	0.099
461.000	-39.061	0.099
461.100	-19.137	0.099
461.200	-20.436	0.100
461.300	-38.050	0.099
461.400	-30.350	0.099
461.500	-35.553	0.099
461.600	-37.670	0.100
461.700	-20.448	0.099
461.800	-19.279	0.100
461.900	-24.773	0.100
462.000	-46.905	0.099
462.100	-29.244	0.099
462.200	-22.675	0.099
462.300	-36.420	0.099
462.400	-21.115	0.100
462.500	-22.237	0.099
462.600	-22.950	0.100
462.700	-29.716	0.099
462.800	-26.604	0.099
462.900	-32.508	0.099
463.000	-41.450	0.099
463.100	-28.243	0.099
463.200	-34.517	0.100
463.300	-30.620	0.100
463.400	-24.561	0.100
463.500	-36.066	0.099
463.600	-34.921	0.100
463.700	-17.071	0.100
463.800	-39.565	0.100
463.900	-27.492	0.099
464.000	-27.548	0.100
464.100	-27.912	0.099
464.200	-40.063	0.100
464.300	-38.735	0.100
464.400	-24.575	0.100
464.500	-37.380	0.099
464.600	-47.881	0.099
464.700	-36.280	0.099
464.800	-27.292	0.099
464.900	-27.976	0.100
465.000	-32.435	0.099
465.100	-46.717	0.100
465.200	-13.510	0.099
465.300	-38.433	0.099
465.400	-39.848	0.099
465.500	-26.298	0.099
465.600	-33.707	0.099
465.700	-35.519	0.099
465.800	-37.734	0.099
465.900	-31.010	0.099
466.000	-37.115	0.099
466.100	-16.055	0.100
466.200	-29.179	0.100
466.300	-22.545	0.100
466.400	-50.824	0.100
466.500	-29.447	0.099
466.600	-30.727	0.099
466.700	-20.077	0.099
466.800	-53.204	0.099
466.900	-19.238	0.100
467.000	-17.209	0.099
467.100	-42.333	0.099
467.200	-46.859	0.100
467.300	-37.106	0.099
467.400	-16.359	0.100
467.500	-30.764	0.099
467.600	-40.981	0.099
467.700	-15.679	0.100
467.800	-35.316	0.099
467.900	-24.743	0.099
468.000	-22.823	0.100
468.100	-25.592	0.100
468.200	-48.022	0.100
468.300	-41.570	0.100
468.400	-32.488	0.099
468.500	-25.182	0.099
468.600	-29.569	0.100
468.700	-48.213	0.099
468.800	-19.575	0.100
468.900	-29.606	0.100
469.000	-23.720	0.100
469.100	-44.646	0.099
469.200	-22.561	0.100
469.300	-62.416	0.100
469.400	-25.866	0.100
469.500	-23.006	0.099
469.600	-29.245	0.100
469.700	-20.611	0.099
469.800	-24.647	0.099
469.900	-35.130	0.100
470.000	-32.481	0.100
470.100	-36.865	0.100
470.200	-32.205	0.100
470.300	-38.288	0.100
470.400	-31.085	0.100
470.500	-39.974	0.099
470.600	-21.669	0.099
470.700	-26.906	0.099
470.800	-37.770	0.100
470.900	-12.232	0.099
471.000	-26.487	0.099
471.100	-38.121	0.099
471.200	-39.962	0.099
471.300	-43.789	0.100
471.400	-24.456	0.100
471.500	-38.218	0.099
471.600	-46.862	0.099
471.700	-33.520	0.099
471.800	-5.131	0.099
471.900	-35.748	0.099
472.000	-27.995	0.100
472.100	-26.379	0.100
472.200	-40.687	0.099
472.300	-22.443	0.099
472.400	-35.981	0.099
472.500	-35.292	0.099
472.600	-23.968	0.100
472.700	-50.235	0.100
472.800	-29.272	0.100
472.900	-24.882	0.100
473.000	-34.856	0.099
473.100	-31.672	0.100
473.200	-34.424	0.100
473.300	-37.543	0.100
473.400	-50.661	0.100
473.500	-12.461	0.099
473.600	-23.425	0.099
473.700	-38.321	0.099
473.800	-30.147	0.100
473.900	-29.539	0.100
474.000	-33.705	0.099
474.100	-28.351	0.100
474.200	-27.007	0.099
474.300	-42.442	0.100
474.400	-42.372	0.100
474.500	-39.241	0.100
474.600	-18.595	0.100
474.700	-48.238	0.100
474.800	-29.674	0.099
474.900	-30.382	0.099
475.000	-21.534	0.099
475.100	-29.205	0.100
475.200	-33.883	0.100
475.300	-35.502	0.100
475.400	-48.982	0.099
475.500	-28.762	0.099
475.600	-14.780	0.100
475.700	-41.074	0.099
475.800	-33.347	0.099
475.900	-45.625	0.100
476.000	-31.719	0.099
476.100	-26.901	0.100
476.200	-26.712	0.099
476.300	-29.260	0.099
476.400	-23.367	0.100
476.500	-22.687	0.100
476.600	-27.599	0.100
476.700	-28.227	0.100
476.800	-40.415	0.100
476.900	-38.475	0.100
477.000	-27.566	0.100
477.100	-29.905	0.099
477.200	-35.575	0.099
477.300	-32.012	0.099
477.400	-25.601	0.099
477.500	-53.310	0.099
477.600	-21.473	0.099
477.700	-28.130	0.099
477.800	-24.058	0.099
477.900	-27.819	0.099
478.000	-28.731	0.099
478.100	-19.714	0.100
478.200	-33.972	0.099
478.300	-33.396	0.100
478.400	-46.299	0.099
478.500	-22.236	0.099
478.600	-38.988	0.099
478.700	-20.323	0.099
478.800	-39.716	0.099
478.900	-29.699	0.099
479.000	-40.726	0.099
479.100	-19.224	0.100
479.200	-30.425	0.099
479.300	-44.476	0.099
479.400	-29.296	0.099
479.500	-38.198	0.099
479.600	-27.607	0.099
479.700	-4.055	0.100
479.800	-26.127	0.099
479.900	-23.501	0.100
480.000	-30.108	0.099
480.100	-23.583	0.099
480.200	-16.960	0.100
480.300	-3.409	0.099
480.400	4.107	0.099
480.500	18.954	0.100
480.600	23.125	0.099
480.700	37.347	0.099
480.800	11.854	0.099
480.900	17.544	0.099
481.000	15.631	0.099
481.100	37.068	0.099
481.200	40.994	0.100
481.300	17.971	0.100
481.400	26.485	0.099
481.500	18.366	0.099
481.600	25.838	0.099
481.700	14.409	0.099
481.800	18.428	0.099
481.900	17.805	0.100
482.000	27.296	0.099
482.100	11.811	0.100
482.200	25.138	0.100
482.300	18.532	0.100
482.400	23.419	0.099
482.500	20.989	0.099
482.600	26.226	0.100
482.700	20.595	0.099
482.800	4.016	0.100
482.900	25.177	0.099
483.000	20.026	0.099
483.100	19.609	0.099
483.200	7.598	0.100
483.300	14.552	0.099
483.400	17.503	0.100
483.500	3.782	0.099
483.600	7.833	0.099
483.700	24.512	0.099
483.800	14.846	0.100
483.900	-12.672	0.099
484.000	21.107	0.099
484.100	25.608	0.100
484.200	11.217	0.099
484.300	8.453	0.099
484.400	8.782	0.100
484.500	-1.997	0.099
484.600	-1.600	0.100
484.700	26.326	0.100
484.800	0.105	0.099
484.900	12.755	0.099
485.000	25.102	0.099
485.100	17.947	0.100
485.200	21.788	0.099
485.300	10.012	0.099
485.400	14.751	0.100
485.500	12.603	0.099
485.600	22.914	0.099
485.700	9.182	0.100
485.800	13.187	0.099
485.900	25.180	0.100
486.000	13.231	0.100
486.100	24.419	0.099
486.200	22.134	0.099
486.300	21.301	0.100
486.400	16.792	0.099
486.500	25.682	0.099
486.600	25.042	0.100
486.700	44.465	0.100
486.800	21.011	0.099
486.900	24.645	0.099
487.000	16.262	0.100
487.100	25.213	0.100
487.200	26.337	0.100
487.300	4.791	0.099
487.400	22.926	0.100
487.500	28.224	0.100
487.600	18.120	0.100
487.700	27.565	0.099
487.800	38.652	0.100
487.900	26.859	0.100
488.000	7.253	0.099
488.100	23.878	0.100
488.200	35.965	0.099
488.300	42.874	0.100
488.400	36.867	0.100
488.500	23.384	0.100
488.600	28.119	0.099
488.700	19.528	0.099
488.800	32.314	0.099
488.900	33.954	0.100
489.000	15.797	0.100
489.100	36.894	0.100
489.200	39.542	0.099
489.300	18.116	0.099
489.400	36.301	0.100
489.500	27.594	0.100
489.600	27.882	0.100
489.700	29.301	0.099
489.800	53.374	0.099
489.900	17.753	0.100
490.000	33.450	0.100
490.100	15.237	0.100
490.200	39.421	0.100
490.300	45.713	0.099
490.400	31.394	0.100
490.500	47.923	0.099
490.600	39.058	0.100
490.700	38.850	0.100
490.800	40.880	0.099
490.900	41.529	0.100
491.000	20.517	0.100
491.100	33.247	0.099
491.200	34.544	0.099
491.300	46.776	0.100
491.400	25.178	0.100
491.500	34.567	0.100
491.600	45.082	0.099
491.700	38.489	0.099
491.800	40.716	0.099
491.900	46.479	0.100
492.000	25.412	0.100
492.100	46.117	0.100
492.200	25.274	0.100
492.300	31.326	0.099
492.400	38.957	0.100
492.500	24.230	0.100
492.600	34.355	0.100
492.700	41.450	0.100
492.800	40.530	0.100
492.900	52.192	0.099
493.000	40.888	0.100
493.100	46.713	0.100
493.200	50.790	0.100
493.300	42.433	0.099
493.400	34.130	0.100
493.500	44.940	0.099
493.600	59.750	0.100
493.700	51.868	0.100
493.800	37.435	0.100
493.900	49.948	0.100
494.000	50.621	0.100
494.100	41.131	0.100
494.200	39.117	0.100
494.300	47.758	0.100
494.400	30.932	0.100
494.500	68.118	0.100
494.600	44.459	0.100
494.700	52.355	0.100
494.800	43.749	0.100
494.900	49.019	0.100
495.000	46.032	0.100
495.100	32.197	0.100
495.200	54.830	0.100
495.300	40.183	0.099
495.400	43.039	0.100
495.500	42.544	0.099
495.600	62.784	0.099
495.700	62.671	0.100
495.800	53.899	0.099
495.900	66.574	0.100
496.000	45.957	0.099
496.100	58.453	0.099
496.200	50.473	0.099
496.300	66.646	0.100
496.400	43.451	0.100
496.500	50.310	0.100
496.600	43.379	0.100
496.700	54.270	0.100
496.800	50.714	0.099
496.900	57.437	0.099
497.000	38.013	0.100
497.100	39.669	0.099
497.200	49.128	0.100
497.300	59.214	0.100
497.400	58.711	0.099
497.500	46.214	0.099
497.600	36.192	0.100
497.700	72.956	0.100
497.800	61.201	0.100
497.900	51.262	0.100
498.000	60.977	0.100
498.100	49.513	0.099
498.200	63.112	0.100
498.300	58.554	0.100
498.400	64.756	0.100
498.500	55.619	0.100
498.600	46.341	0.100
498.700	52.107	0.099
498.800	56.199	0.099
498.900	52.314	0.100
499.000	61.316	0.100
499.100	62.450	0.100
499.200	46.235	0.100
499.300	39.365	0.100
499.400	42.562	0.099
499.500	56.569	0.100
499.600	55.716	0.100
499.700	56.120	0.100
499.800	70.696	0.100
499.900	70.318	0.100
500.000	55.331	0.100
500.100	55.331	0.100
500.200	73.616	0.100
500.300	53.452	0.100
500.400	58.223	0.100
500.500	56.249	0.100
500.600	63.990	0.100
500.700	50.950	0.100
500.800	60.415	0.100
500.900	57.362	0.099
501.000	70.370	0.099
501.100	64.454	0.100
501.200	59.553	0.100
501.300	58.281	0.100
501.400	66.573	0.100
501.500	38.252	0.100
501.600	61.960	0.100
501.700	74.213	0.100
501.800	75.947	0.100
501.900	47.002	0.100
502.000	60.323	0.100
502.100	61.323	0.100
502.200	56.210	0.100
502.300	63.099	0.099
502.400	65.317	0.100
502.500	63.200	0.099
502.600	46.237	0.100
502.700	69.896	0.100
502.800	68.210	0.099
502.900	66.981	0.099
503.000	72.103	0.100
503.100	67.434	0.100
503.200	54.836	0.100
503.300	64.488	0.100
503.400	70.590	0.100
503.500	73.231	0.100
503.600	68.949	0.100
503.700	47.055	0.100
503.800	70.049	0.099
503.900	65.504	0.100
504.000	73.152	0.099
504.100	80.171	0.099
504.200	65.341	0.100
504.300	67.930	0.100
504.400	56.785	0.100
504.500	66.328	0.100
504.600	60.224	0.100
504.700	63.347	0.099
504.800	58.057	0.100
504.900	87.577	0.100
505.000	70.847	0.100
505.100	65.098	0.100
505.200	60.802	0.100
505.300	70.199	0.100
505.400	55.544	0.100
505.500	70.600	0.099
505.600	70.187	0.100
505.700	67.014	0.100
505.800	74.008	0.100
505.900	80.970	0.100
506.000	57.229	0.100
506.100	85.679	0.100
506.200	68.986	0.100
506.300	66.434	0.100
506.400	67.499	0.099
506.500	48.940	0.100
506.600	58.594	0.100
506.700	81.680	0.100
506.800	79.224	0.100
506.900	82.281	0.099
507.000	76.902	0.100
507.100	60.060	0.100
507.200	72.938	0.100
507.300	58.733	0.100
507.400	82.236	0.100
507.500	78.610	0.100
507.600	57.583	0.100
507.700	69.437	0.099
507.800	63.329	0.099
507.900	98.251	0.100
508.000	71.669	0.100
508.100	73.438	0.100
508.200	84.507	0.100
508.300	81.990	0.100
508.400	68.486	0.100
508.500	85.919	0.100
508.600	57.389	0.100
508.700	62.014	0.099
508.800	93.094	0.099
508.900	87.349	0.100
509.000	86.571	0.100
509.100	75.618	0.100
509.200	70.329	0.100
509.300	75.431	0.099
509.400	88.955	0.099
509.500	64.321	0.099
509.600	83.534	0.099
509.700	78.610	0.100
509.800	75.516	0.100
509.900	85.990	0.100
510.000	72.996	0.100
510.100	64.964	0.100
510.200	76.200	0.100
510.300	52.594	0.100
510.400	70.611	0.100
510.500	76.251	0.100
510.600	74.622	0.099
510.700	72.627	0.100
510.800	80.570	0.100
510.900	81.322	0.100
511.000	74.560	0.100
511.100	74.360	0.100
511.200	80.903	0.100
511.300	84.509	0.099
511.400	68.297	0.099
511.500	84.976	0.099
511.600	83.571	0.100
511.700	74.938	0.100
511.800	73.498	0.100
511.900	74.935	0.099
512.000	88.292	0.099
512.100	83.252	0.099
512.200	80.019	0.100
512.300	69.981	0.099
512.400	92.878	0.100
512.500	91.470	0.100
512.600	85.755	0.099
512.700	81.435	0.100
512.800	73.294	0.100
512.900	61.604	0.100
513.000	85.567	0.099
513.100	69.198	0.099
513.200	74.657	0.099
513.300	80.394	0.100
513.400	76.732	0.100
513.500	77.484	0.099
513.600	83.183	0.099
513.700	92.717	0.099
513.800	89.187	0.099
513.900	72.456	0.100
514.000	75.679	0.100
514.100	95.624	0.100
514.200	104.409	0.099
514.300	81.541	0.099
514.400	76.640	0.099
514.500	82.308	0.100
514.600	79.575	0.100
514.700	80.505	0.100
514.800	78.575	0.100
514.900	76.063	0.100
515.000	98.729	0.100
515.100	79.209	0.100
515.200	83.714	0.099
515.300	83.850	0.099
515.400	74.546	0.099
515.500	76.298	0.100
515.600	83.212	0.100
515.700	73.073	0.100
515.800	92.935	0.100
515.900	60.296	0.100
516.000	86.876	0.100
516.100	88.593	0.100
516.200	74.639	0.100
516.300	77.323	0.100
516.400	71.382	0.099
516.500	84.593	0.100
516.600	79.135	0.099
516.700	83.155	0.100
516.800	82.335	0.100
516.900	72.816	0.100
517.000	82.505	0.100
517.100	84.454	0.099
517.200	85.846	0.099
517.300	71.835	0.100
517.400	92.437	0.100
517.500	91.717	0.099
517.600	69.473	0.099
517.700	72.968	0.100
517.800	79.291	0.100
517.900	84.276	0.100
518.000	82.159	0.100
518.100	73.640	0.100
518.200	87.154	0.099
518.300	82.930	0.100
518.400	88.260	0.100
518.500	72.372	0.100
518.600	88.428	0.100
518.700	77.129	0.099
518.800	79.338	0.100
518.900	60.616	0.100
519.000	87.329	0.100
519.100	81.151	0.100
519.200	81.957	0.100
519.300	70.597	0.100
519.400	84.510	0.100
519.500	80.644	0.100
519.600	64.767	0.100
519.700	77.780	0.100
519.800	89.151	0.100
519.900	77.136	0.100
520.000	88.530	0.100
520.100	72.417	0.099
520.200	101.173	0.100
520.300	84.143	0.100
520.400	74.539	0.100
520.500	70.260	0.099
520.600	76.148	0.100
520.700	80.276	0.100
520.800	83.488	0.100
520.900	72.963	0.100
521.000	80.663	0.100
521.100	70.410	0.099
521.200	91.406	0.100
521.300	63.711	0.100
521.400	83.720	0.100
521.500	88.799	0.100
521.600	82.747	0.099
521.700	78.666	0.099
521.800	74.998	0.100
521.900	73.168	0.100
522.000	70.874	0.099
522.100	72.593	0.100
522.200	75.673	0.100
522.300	74.648	0.099
522.400	73.414	0.100
522.500	94.121	0.100
522.600	84.538	0.100
522.700	84.407	0.100
522.800	85.581	0.100
522.900	69.848	0.100
523.000	80.129	0.099
523.100	77.918	0.100
523.200	75.239	0.100
523.300	69.954	0.100
523.400	80.699	0.100
523.500	83.841	0.100
523.600	84.783	0.100
523.700	60.217	0.100
523.800	86.351	0.100
523.900	88.917	0.100
524.000	72.131	0.099
524.100	80.951	0.099
524.200	86.807	0.099
524.300	81.044	0.100
524.400	74.538	0.099
524.500	81.004	0.099
524.600	78.986	0.099
524.700	72.962	0.100
524.800	79.772	0.100
524.900	79.534	0.100
525.000	68.315	0.099
525.100	82.622	0.099
525.200	77.919	0.099
525.300	74.641	0.100
525.400	83.325	0.099
525.500	78.204	0.100
525.600	86.109	0.099
525.700	66.107	0.099
525.800	87.421	0.100
525.900	88.042	0.100
526.000	78.228	0.099
526.100	74.011	0.099
526.200	79.220	0.099
526.300	68.941	0.099
526.400	83.475	0.099
526.500	87.041	0.099
526.600	75.864	0.100
526.700	75.814	0.100
526.800	79.879	0.100
526.900	61.458	0.100
527.000	69.928	0.100
527.100	90.632	0.099
527.200	75.060	0.099
527.300	80.149	0.100
527.400	84.453	0.099
527.500	74.936	0.099
527.600	74.492	0.099
527.700	86.544	0.100
527.800	87.585	0.100
527.900	49.748	0.099
528.000	89.427	0.099
528.100	83.826	0.100
528.200	66.188	0.100
528.300	82.695	0.100
528.400	87.958	0.100
528.500	69.097	0.100
528.600	71.112	0.100
528.700	71.296	0.099
528.800	58.687	0.100
528.900	79.229	0.099
529.000	62.769	0.100
529.100	79.352	0.100
529.200	68.585	0.099
529.300	79.052	0.099
529.400	61.712	0.100
529.500	79.164	0.099
529.600	75.652	0.099
529.700	85.810	0.099
529.800	82.520	0.100
529.900	80.956	0.099
530.000	71.748	0.100
530.100	68.321	0.100
530.200	78.610	0.100
530.300	86.112	0.099
530.400	60.544	0.100
530.500	67.395	0.100
530.600	76.678	0.100
530.700	66.304	0.099
530.800	67.629	0.099
530.900	85.144	0.100
531.000	77.885	0.099
531.100	60.044	0.100
531.200	49.209	0.100
531.300	75.447	0.099
531.400	89.032	0.100
531.500	62.928	0.099
531.600	66.207	0.099
531.700	76.679	0.099
531.800	75.462	0.099
531.900	73.983	0.100
532.000	81.799	0.100
532.100	93.583	0.100
532.200	77.291	0.100
532.300	81.563	0.100
532.400	70.668	0.100
532.500	75.444	0.100
532.600	66.821	0.099
532.700	84.504	0.099
532.800	58.833	0.100
532.900	71.645	0.099
533.000	75.990	0.099
533.100	75.684	0.100
533.200	91.777	0.099
533.300	60.025	0.099
533.400	75.700	0.100
533.500	63.825	0.100
533.600	91.574	0.100
533.700	78.934	0.099
533.800	76.252	0.099
533.900	78.808	0.099
534.000	63.944	0.100
534.100	78.721	0.099
534.200	74.883	0.099
534.300	78.617	0.099
534.400	66.574	0.099
534.500	67.416	0.100
534.600	65.914	0.100
534.700	66.678	0.099
534.800	76.984	0.099
534.900	70.668	0.100
535.000	67.802	0.099
535.100	62.877	0.099
535.200	80.941	0.099
535.300	60.393	0.099
535.400	82.763	0.099
535.500	72.471	0.100
535.600	67.789	0.100
535.700	63.481	0.099
535.800	85.598	0.099
535.900	57.824	0.099
536.000	72.458	0.099
536.100	76.526	0.099
536.200	70.522	0.099
536.300	81.405	0.099
536.400	78.677	0.099
536.500	59.162	0.099
536.600	76.591	0.099
536.700	72.655	0.099
536.800	62.377	0.099
536.900	67.265	0.099
537.000	60.337	0.099
537.100	81.414	0.099
537.200	85.955	0.099
537.300	75.184	0.099
537.400	68.127	0.100
537.500	64.851	0.100
537.600	79.470	0.099
537.700	69.210	0.099
537.800	62.830	0.099
537.900	81.099	0.099
538.000	74.790	0.099
538.100	61.133	0.099
538.200	89.185	0.100
538.300	65.052	0.099
538.400	56.914	0.099
538.500	70.409	0.100
538.600	70.638	0.099
538.700	69.281	0.099
538.800	71.762	0.099
538.900	69.388	0.099
539.000	71.651	0.100
539.100	64.766	0.099
539.200	68.166	0.099
539.300	67.408	0.099
539.400	64.354	0.099
539.500	80.897	0.099
539.600	79.401	0.099
539.700	64.359	0.099
539.800	66.617	0.099
539.900	66.714	0.099
540.000	69.070	0.099
540.100	72.589	0.099
540.200	48.455	0.099
540.300	61.902	0.100
540.400	36.304	0.099
540.500	47.680	0.099
540.600	17.079	0.099
540.700	4.601	0.100
540.800	2.247	0.100
540.900	-8.744	0.099
541.000	-12.102	0.099
541.100	-21.204	0.099
541.200	-15.709	0.100
541.300	-32.114	0.099
541.400	-36.253	0.099
541.500	-34.675	0.099
541.600	-44.292	0.099
541.700	-49.944	0.099
541.800	-57.838	0.099
541.900	-32.749	0.099
542.000	-60.161	0.099
542.100	-54.623	0.099
542.200	-46.019	0.100
542.300	-47.486	0.099
542.400	-66.458	0.099
542.500	-63.607	0.099
542.600	-64.937	0.099
542.700	-81.428	0.099
542.800	-56.543	0.099
542.900	-77.246	0.099
543.000	-71.352	0.099
543.100	-59.037	0.099
543.200	-64.293	0.099
543.300	-70.853	0.099
543.400	-78.750	0.099
543.500	-55.518	0.099
543.600	-68.204	0.099
543.700	-54.113	0.099
543.800	-57.795	0.099
543.900	-58.113	0.099
544.000	-74.270	0.099
544.100	-54.486	0.099
544.200	-57.332	0.099
544.300	-62.075	0.099
544.400	-62.231	0.099
544.500	-49.000	0.099
544.600	-69.583	0.099
544.700	-55.773	0.099
544.800	-54.060	0.099
544.900	-48.928	0.099
545.000	-51.933	0.099
545.100	-55.959	0.099
545.200	-77.264	0.099
545.300	-46.885	0.099
545.400	-70.145	0.099
545.500	-57.022	0.099
545.600	-57.412	0.099
545.700	-63.221	0.099
545.800	-28.317	0.099
545.900	-64.952	0.099
546.000	-55.864	0.099
546.100	-44.475	0.099
546.200	-50.704	0.099
546.300	-43.367	0.099
546.400	-52.973	0.099
546.500	-54.524	0.099
546.600	-66.242	0.099
546.700	-49.262	0.099
546.800	-54.354	0.099
546.900	-51.627	0.099
547.000	-60.344	0.099
547.100	-44.261	0.099
547.200	-52.761	0.099
547.300	-65.316	0.099
547.400	-45.163	0.099
547.500	-44.319	0.099
547.600	-67.322	0.099
547.700	-57.613	0.099
547.800	-35.576	0.099
547.900	-50.997	0.099
548.000	-53.240	0.099
548.100	-61.023	0.099
548.200	-57.581	0.099
548.300	-51.068	0.099
548.400	-61.073	0.099
548.500	-45.483	0.099
548.600	-53.995	0.099
548.700	-47.433	0.099
548.800	-53.235	0.099
548.900	-71.410	0.099
549.000	-55.331	0.099
549.100	-57.244	0.099
549.200	-48.703	0.099
549.300	-48.318	0.099
549.400	-48.133	0.099
549.500	-55.681	0.099
549.600	-56.166	0.099
549.700	-60.959	0.099
549.800	-57.244	0.099
549.900	-43.720	0.099
550.000	-65.343	0.099
550.100	-45.586	0.099
550.200	-58.033	0.099
550.300	-51.311	0.099
550.400	-50.723	0.099
550.500	-58.580	0.099
550.600	-58.917	0.099
550.700	-47.138	0.099
550.800	-51.993	0.099
550.900	-46.368	0.099
551.000	-61.158	0.099
551.100	-53.046	0.099
551.200	-41.537	0.099
551.300	-50.483	0.099
551.400	-69.773	0.099
551.500	-62.936	0.099
551.600	-50.993	0.099
551.700	-75.534	0.099
551.800	-53.298	0.099
551.900	-35.922	0.099
552.000	-59.902	0.099
552.100	-49.678	0.099
552.200	-53.780	0.099
552.300	-69.058	0.099
552.400	-48.063	0.099
552.500	-53.167	0.099
552.600	-55.757	0.099
552.700	-52.875	0.099
552.800	-56.436	0.099
552.900	-54.163	0.099
553.000	-41.676	0.099
553.100	-40.717	0.099
553.200	-58.327	0.099
553.300	-69.530	0.099
553.400	-52.061	0.099
553.500	-48.117	0.099
553.600	-68.545	0.099
553.700	-50.301	0.099
553.800	-38.551	0.099
553.900	-44.949	0.099
554.000	-61.777	0.099
554.100	-67.895	0.099
554.200	-59.651	0.099
554.300	-38.535	0.099
554.400	-64.022	0.099
554.500	-50.941	0.099
554.600	-48.511	0.099
554.700	-44.779	0.099
554.800	-55.124	0.099
554.900	-55.910	0.099
555.000	-50.496	0.099
555.100	-59.746	0.099
555.200	-57.094	0.099
555.300	-47.296	0.099
555.400	-53.307	0.099
555.500	-59.196	0.099
555.600	-53.795	0.099
555.700	-50.903	0.099
555.800	-56.701	0.099
555.900	-44.617	0.099
556.000	-40.420	0.099
556.100	-45.147	0.099
556.200	-51.140	0.099
556.300	-62.960	0.099
556.400	-54.091	0.099
556.500	-68.226	0.099
556.600	-52.993	0.099
556.700	-45.263	0.099
556.800	-59.993	0.099
556.900	-55.038	0.099
557.000	-47.040	0.099
557.100	-54.485	0.099
557.200	-49.690	0.099
557.300	-59.459	0.099
557.400	-54.495	0.099
557.500	-51.994	0.099
557.600	-37.042	0.099
557.700	-61.184	0.099
557.800	-53.535	0.099
557.900	-55.989	0.099
558.000	-52.449	0.099
558.100	-49.776	0.099
558.200	-55.943	0.099
558.300	-53.680	0.099
558.400	-47.726	0.099
558.500	-60.050	0.099
558.600	-44.723	0.099
558.700	-41.982	0.099
558.800	-56.171	0.099
558.900	-51.225	0.099
559.000	-62.446	0.099
559.100	-49.099	0.099
559.200	-55.922	0.099
559.300	-53.951	0.099
559.400	-48.597	0.099
559.500	-47.810	0.099
559.600	-55.277	0.099
559.700	-57.820	0.099
559.800	-42.280	0.099
559.900	-44.686	0.099
560.000	-60.315	0.099
560.100	-62.857	0.099
560.200	-34.591	0.099
560.300	-38.676	0.099
560.400	-51.089	0.099
560.500	-54.394	0.099
560.600	-55.971	0.099
560.700	-53.590	0.099
560.800	-52.946	0.099
560.900	-25.111	0.099
561.000	-47.977	0.099
561.100	-54.304	0.099
561.200	-56.024	0.099
561.300	-49.896	0.099
561.400	-53.364	0.099
561.500	-52.145	0.099
561.600	-29.114	0.099
561.700	-38.131	0.099
561.800	-59.339	0.099
561.900	-46.172	0.099
562.000	-50.661	0.099
562.100	-52.973	0.099
562.200	-40.221	0.099
562.300	-51.513	0.099
562.400	-62.764	0.099
562.500	-41.891	0.099
562.600	-39.773	0.099
562.700	-42.952	0.099
562.800	-56.409	0.099
562.900	-52.430	0.099
563.000	-54.225	0.099
563.100	-51.889	0.099
563.200	-49.805	0.099
563.300	-52.562	0.099
563.400	-48.344	0.099
563.500	-46.374	0.099
563.600	-40.953	0.099
563.700	-36.506	0.099
563.800	-53.307	0.099
563.900	-43.102	0.099
564.000	-62.124	0.099
564.100	-37.543	0.099
564.200	-56.905	0.099
564.300	-38.963	0.099
564.400	-42.856	0.099
564.500	-54.726	0.099
564.600	-39.500	0.099
564.700	-46.496	0.099
564.800	-41.231	0.099
564.900	-38.008	0.099
565.000	-48.309	0.099
565.100	-53.155	0.099
565.200	-44.890	0.099
565.300	-34.873	0.099
565.400	-46.245	0.099
565.500	-43.255	0.099
565.600	-33.040	0.099
565.700	-42.408	0.099
565.800	-46.739	0.099
565.900	-58.102	0.099
566.000	-46.965	0.099
566.100	-44.651	0.099
566.200	-53.266	0.099
566.300	-44.402	0.099
566.400	-38.717	0.099
566.500	-52.189	0.099
566.600	-26.553	0.099
566.700	-44.360	0.099
566.800	-43.743	0.099
566.900	-50.332	0.099
567.000	-46.006	0.099
567.100	-48.839	0.099
567.200	-35.442	0.099
567.300	-48.580	0.099
567.400	-35.745	0.099
567.500	-40.451	0.099
567.600	-51.104	0.099
567.700	-42.971	0.099
567.800	-41.667	0.099
567.900	-40.656	0.099
568.000	-41.486	0.099
568.100	-43.257	0.099
568.200	-43.672	0.099
568.300	-35.099	0.099
568.400	-40.175	0.099
568.500	-41.308	0.099
568.600	-42.292	0.099
568.700	-52.443	0.099
568.800	-51.345	0.099
568.900	-34.595	0.099
569.000	-47.266	0.099
569.100	-31.715	0.099
569.200	-49.734	0.099
569.300	-34.377	0.099
569.400	-36.979	0.099
569.500	-48.068	0.099
569.600	-57.987	0.099
569.700	-34.134	0.099
569.800	-46.212	0.099
569.900	-39.355	0.099
570.000	-48.792	0.099
570.100	-44.786	0.099
570.200	-52.014	0.099
570.300	-35.449	0.099
570.400	-27.119	0.099
570.500	-41.404	0.099
570.600	-48.155	0.099
570.700	-35.089	0.099
570.800	-45.877	0.099
570.900	-44.559	0.099
571.000	-66.201	0.099
571.100	-24.603	0.099
571.200	-54.279	0.099
571.300	-45.574	0.099
571.400	-28.686	0.099
571.500	-31.916	0.099
571.600	-56.816	0.099
571.700	-36.937	0.099
571.800	-44.016	0.099
571.900	-45.307	0.099
572.000	-42.180	0.099
572.100	-31.652	0.099
572.200	-52.079	0.099
572.300	-40.312	0.099
572.400	-57.552	0.099
572.500	-43.724	0.099
572.600	-38.814	0.099
572.700	-41.485	0.099
572.800	-41.069	0.099
572.900	-49.309	0.099
573.000	-28.236	0.099
573.100	-41.052	0.099
573.200	-49.340	0.099
573.300	-40.825	0.099
573.400	-46.703	0.099
573.500	-37.349	0.099
573.600	-45.984	0.099
573.700	-38.815	0.099
573.800	-41.085	0.099
573.900	-34.401	0.099
574.000	-40.735	0.099
574.100	-37.871	0.099
574.200	-55.475	0.099
574.300	-48.205	0.099
574.400	-36.067	0.099
574.500	-40.687	0.099
574.600	-51.913	0.099
574.700	-41.201	0.099
574.800	-49.644	0.099
574.900	-30.628	0.099
575.000	-42.673	0.099
575.100	-42.905	0.099
575.200	-41.684	0.099
575.300	-29.396	0.099
575.400	-54.102	0.099
575.500	-31.286	0.099
575.600	-41.896	0.099
575.700	-28.989	0.099
575.800	-36.175	0.099
575.900	-34.976	0.099
576.000	-60.796	0.099
576.100	-25.356	0.099
576.200	-36.735	0.099
576.300	-47.247	0.099
576.400	-35.354	0.099
576.500	-40.474	0.099
576.600	-36.371	0.099
576.700	-28.704	0.099
576.800	-45.293	0.099
576.900	-42.277	0.099
577.000	-28.157	0.099
577.100	-30.485	0.099
577.200	-42.915	0.099
577.300	-42.170	0.099
577.400	-23.331	0.099
577.500	-24.345	0.099
577.600	-45.435	0.099
577.700	-51.494	0.099
577.800	-50.550	0.099
577.900	-29.692	0.099
578.000	-55.058	0.099
578.100	-29.080	0.099
578.200	-36.154	0.099
578.300	-31.509	0.099
578.400	-52.874	0.099
578.500	-28.695	0.099
578.600	-32.994	0.099
578.700	-52.759	0.099
578.800	-42.343	0.099
578.900	-34.307	0.099
579.000	-45.399	0.099
579.100	-35.882	0.099
579.200	-27.197	0.099
579.300	-38.982	0.099
579.400	-39.478	0.099
579.500	-39.000	0.099
579.600	-40.978	0.099
579.700	-44.105	0.099
579.800	-39.664	0.099
579.900	-39.815	0.099
580.000	-43.314	0.099
580.100	-37.916	0.099
580.200	-33.733	0.099
580.300	-39.611	0.099
580.400	-38.800	0.099
580.500	-35.268	0.099
580.600	-34.351	0.099
580.700	-42.034	0.099
580.800	-42.215	0.099
580.900	-26.947	0.099
581.000	-39.900	0.099
581.100	-43.626	0.099
581.200	-48.113	0.099
581.300	-31.023	0.099
581.400	-31.438	0.099
581.500	-48.339	0.099
581.600	-38.748	0.099
581.700	-46.245	0.099
581.800	-39.037	0.099
581.900	-34.865	0.099
582.000	-45.132	0.099
582.100	-32.004	0.099
582.200	-43.499	0.099
582.300	-30.391	0.099
582.400	-32.176	0.099
582.500	-51.737	0.099
582.600	-66.666	0.099
582.700	-23.320	0.099
582.800	-31.248	0.099
582.900	-43.250	0.099
583.000	-56.567	0.099
583.100	-40.798	0.099
583.200	-29.671	0.099
583.300	-44.875	0.099
583.400	-45.596	0.099
583.500	-25.019	0.099
583.600	-33.569	0.099
583.700	-38.064	0.099
583.800	-40.154	0.099
583.900	-33.912	0.099
584.000	-49.129	0.099
584.100	-33.719	0.099
584.200	-54.364	0.099
584.300	-33.931	0.099
584.400	-45.524	0.099
584.500	-39.639	0.099
584.600	-25.192	0.099
584.700	-58.735	0.099
584.800	-29.682	0.099
584.900	-30.280	0.099
585.000	-54.278	0.099
585.100	-37.487	0.099
585.200	-36.975	0.099
585.300	-42.641	0.099
585.400	-33.809	0.099
585.500	-31.665	0.099
585.600	-45.318	0.099
585.700	-46.776	0.099
585.800	-36.817	0.099
585.900	-49.650	0.099
586.000	-38.865	0.099
586.100	-36.372	0.099
586.200	-43.703	0.099
586.300	-27.446	0.099
586.400	-35.620	0.099
586.500	-47.628	0.099
586.600	-27.816	0.099
586.700	-31.794	0.099
586.800	-34.706	0.099
586.900	-35.892	0.099
587.000	-32.622	0.099
587.100	-43.591	0.099
587.200	-24.828	0.099
587.300	-30.953	0.099
587.400	-38.803	0.099
587.500	-20.023	0.099
587.600	-29.441	0.099
587.700	-41.646	0.099
587.800	-23.956	0.099
587.900	-41.649	0.099
588.000	-33.580	0.099
588.100	-40.393	0.099
588.200	-33.826	0.099
588.300	-44.452	0.099
588.400	-25.551	0.099
588.500	-33.595	0.099
588.600	-43.464	0.099
588.700	-28.199	0.099
588.800	-49.368	0.099
588.900	-24.246	0.099
589.000	-34.431	0.099
589.100	-25.279	0.099
589.200	-32.673	0.099
589.300	-31.712	0.099
589.400	-38.555	0.099
589.500	-31.290	0.099
589.600	-39.003	0.099
589.700	-42.898	0.099
589.800	-32.119	0.099
589.900	-40.669	0.099
590.000	-38.552	0.099
590.100	-25.162	0.099
590.200	-35.304	0.099
590.300	-27.795	0.099
590.400	-43.076	0.099
590.500	-34.537	0.099
590.600	-40.510	0.099
590.700	-36.179	0.099
590.800	-42.956	0.099
590.900	-44.223	0.099
591.000	-30.366	0.099
591.100	-53.735	0.099
591.200	-43.063	0.099
591.300	-30.694	0.099
591.400	-26.410	0.099
591.500	-26.299	0.099
591.600	-40.697	0.099
591.700	-29.216	0.099
591.800	-36.444	0.099
591.900	-43.638	0.099
592.000	-57.145	0.099
592.100	-28.625	0.099
592.200	-31.122	0.099
592.300	-16.302	0.099
592.400	-57.158	0.099
592.500	-25.243	0.099
592.600	-36.321	0.099
592.700	-27.427	0.099
592.800	-36.332	0.099
592.900	-41.549	0.099
593.000	-33.077	0.099
593.100	-14.566	0.099
593.200	-48.747	0.099
593.300	-38.885	0.099
593.400	-36.704	0.099
593.500	-32.809	0.099
593.600	-35.965	0.099
593.700	-45.176	0.099
593.800	-44.009	0.099
593.900	-34.624	0.099
594.000	-22.922	0.099
594.100	-31.747	0.099
594.200	-51.041	0.099
594.300	-20.742	0.099
594.400	-39.716	0.099
594.500	-24.801	0.099
594.600	-31.919	0.099
594.700	-31.424	0.099
594.800	-33.909	0.099
594.900	-36.720	0.099
595.000	-29.925	0.099
595.100	-30.709	0.099
595.200	-27.889	0.099
595.300	-43.020	0.099
595.400	-37.549	0.099
595.500	-46.255	0.099
595.600	-33.382	0.099
595.700	-35.324	0.099
595.800	-39.735	0.099
595.900	-49.891	0.099
596.000	-27.605	0.099
596.100	-36.901	0.099
596.200	-27.309	0.099
596.300	-60.047	0.099
596.400	-21.493	0.099
596.500	-38.434	0.099
596.600	-30.871	0.099
596.700	-34.436	0.099
596.800	-31.376	0.099
596.900	-37.434	0.099
597.000	-59.570	0.099
597.100	-28.190	0.099
597.200	-32.748	0.099
597.300	-46.146	0.099
597.400	-39.973	0.099
597.500	-28.331	0.099
597.600	-39.425	0.099
597.700	-38.795	0.099
597.800	-34.387	0.099
597.900	-32.897	0.099
598.000	-37.783	0.099
598.100	-19.025	0.099
598.200	-43.224	0.099
598.300	-36.203	0.099
598.400	-42.750	0.099
598.500	-22.740	0.099
598.600	-33.772	0.099
598.700	-32.122	0.099
598.800	-42.063	0.099
598.900	-53.188	0.099
599.000	-14.730	0.099
599.100	-34.224	0.099
599.200	-42.379	0.099
599.300	-49.548	0.099
599.400	-50.330	0.099
599.500	-33.085	0.099
599.600	-42.234	0.099
599.700	-28.058	0.099
599.800	-22.582	0.099
599.900	-46.738	0.099
600.000	-37.739	0.099
600.100	-37.908	0.099
600.200	-34.238	0.099
600.300	-41.979	0.099
600.400	-32.961	0.099
600.500	-39.724	0.099
600.600	-38.299	0.099
600.700	-49.688	0.099
600.800	-35.575	0.099
600.900	-29.056	0.099
601.000	-43.244	0.099
601.100	-34.848	0.099
601.200	-31.289	0.099
601.300	-46.878	0.099
601.400	-40.763	0.099
601.500	-33.174	0.099
601.600	-16.761	0.099
601.700	-26.194	0.099
601.800	-47.379	0.099
601.900	-43.401	0.099
602.000	-39.647	0.099
602.100	-39.476	0.099
602.200	-31.808	0.099
602.300	-51.121	0.099
602.400	-31.412	0.099
602.500	-27.077	0.099
602.600	-21.047	0.099
602.700	-20.012	0.099
602.800	-35.658	0.099
602.900	-41.947	0.099
603.000	1.684	0.099
603.100	-39.493	0.099
603.200	-24.965	0.099
603.300	-29.281	0.099
603.400	-39.404	0.099
603.500	-33.291	0.099
603.600	-35.545	0.099
603.700	-33.958	0.099
603.800	-30.852	0.099
603.900	-35.541	0.099
604.000	-50.726	0.099
604.100	-34.851	0.099
604.200	-29.309	0.099
604.300	-30.148	0.099
604.400	-37.251	0.099
604.500	-29.774	0.099
604.600	-22.449	0.099
604.700	-27.634	0.099
604.800	-25.912	0.099
604.900	-31.579	0.099
605.000	-35.769	0.099
605.100	-46.810	0.099
605.200	-31.778	0.099
605.300	-34.467	0.099
605.400	-27.761	0.099
605.500	-31.550	0.099
605.600	-41.494	0.099
605.700	-38.346	0.099
605.800	-39.379	0.099
605.900	-36.997	0.099
606.000	-34.575	0.099
606.100	-38.554	0.099
606.200	-32.174	0.099
606.300	-32.588	0.099
606.400	-34.533	0.099
606.500	-28.880	0.099
606.600	-48.764	0.099
606.700	-28.497	0.099
606.800	-24.833	0.099
606.900	-49.624	0.099
607.000	-56.216	0.099
607.100	-32.910	0.099
607.200	-31.536	0.099
607.300	-38.282	0.099
607.400	-27.249	0.099
607.500	-20.679	0.099
607.600	-32.517	0.099
607.700	-43.583	0.099
607.800	-29.166	0.099
607.900	-25.634	0.099
608.000	-29.105	0.099
608.100	-34.432	0.099
608.200	-32.720	0.099
608.300	-40.138	0.099
608.400	-37.160	0.099
608.500	-44.086	0.099
608.600	-30.514	0.099
608.700	-37.366	0.099
608.800	-28.082	0.099
608.900	-43.102	0.099
609.000	-23.362	0.099
609.100	-31.748	0.099
609.200	-36.431	0.099
609.300	-52.116	0.099
609.400	-33.559	0.099
609.500	-27.513	0.099
609.600	-40.846	0.099
609.700	-33.171	0.099
609.800	-23.298	0.099
609.900	-17.262	0.099
610.000	-51.836	0.099
610.100	-25.445	0.099
610.200	-36.314	0.099
610.300	-38.072	0.099
610.400	-34.567	0.099
610.500	-46.796	0.099
610.600	-41.759	0.099
610.700	-30.573	0.099
610.800	-35.721	0.099
610.900	-31.573	0.099
611.000	-33.306	0.099
611.100	-28.593	0.099
611.200	-42.001	0.099
611.300	-37.630	0.099
611.400	-27.758	0.099
611.500	-24.265	0.099
611.600	-34.395	0.099
611.700	-28.743	0.099
611.800	-38.167	0.099
611.900	-49.948	0.099
612.000	-15.281	0.099
612.100	-35.917	0.099
612.200	-39.469	0.099
612.300	-25.569	0.099
612.400	-26.195	0.099
612.500	-26.562	0.099
612.600	-41.663	0.099
612.700	-29.421	0.099
612.800	-34.664	0.099
612.900	-27.417	0.099
613.000	-33.085	0.099
613.100	-39.592	0.099
613.200	-26.347	0.099
613.300	-40.231	0.099
613.400	-21.846	0.099
613.500	-28.916	0.099
613.600	-24.637	0.099
613.700	-37.952	0.099
613.800	-17.803	0.099
613.900	-52.182	0.099
614.000	-38.357	0.099
614.100	-24.386	0.099
614.200	-32.880	0.099
614.300	-32.588	0.099
614.400	-37.125	0.099
614.500	-37.812	0.099
614.600	-32.171	0.099
614.700	-38.349	0.099
614.800	-17.950	0.099
614.900	-22.611	0.099
615.000	-32.337	0.099
615.100	-24.308	0.099
615.200	-35.327	0.099
615.300	-29.573	0.099
615.400	-29.275	0.099
615.500	-33.257	0.099
615.600	-23.564	0.099
615.700	-29.611	0.099
615.800	-41.242	0.099
615.900	-26.296	0.099
616.000	-25.036	0.099
616.100	-34.664	0.099
616.200	-34.112	0.099
616.300	-30.872	0.099
616.400	-30.861	0.099
616.500	-45.910	0.099
616.600	-38.141	0.099
616.700	-39.673	0.099
616.800	-36.452	0.099
616.900	-13.194	0.099
617.000	-24.405	0.099
617.100	-30.135	0.099
617.200	-19.137	0.099
617.300	-45.400	0.099
617.400	-44.734	0.099
617.500	-38.366	0.099
617.600	-28.385	0.099
617.700	-30.846	0.099
617.800	-16.426	0.099
617.900	-35.705	0.099
618.000	-41.838	0.099
618.100	-38.201	0.099
618.200	-30.225	0.100
618.300	-30.469	0.100
618.400	-18.956	0.100
618.500	-40.931	0.100
618.600	-29.058	0.100
618.700	-34.375	0.100
618.800	-37.433	0.100
618.900	-27.954	0.100
619.000	-45.436	0.099
619.100	-35.755	0.100
619.200	-13.035	0.100
619.300	-36.774	0.100
619.400	-27.881	0.100
619.500	-37.707	0.100
619.600	-29.834	0.100
619.700	-34.756	0.100
619.800	-53.627	0.100
619.900	-9.391	0.100
620.000	-34.888	0.100
620.100	-27.864	0.100
620.200	-19.437	0.100
620.300	-29.072	0.100
620.400	-31.523	0.100
620.500	-33.155	0.100
620.600	-38.031	0.100
620.700	-20.147	0.100
620.800	-22.095	0.100
620.900	-40.221	0.100
621.000	-29.225	0.100
621.100	-36.512	0.100
621.200	-44.112	0.100
621.300	-20.484	0.100
621.400	-44.291	0.100
621.500	-21.018	0.100
621.600	-27.764	0.100
621.700	-41.633	0.100
621.800	-31.780	0.100
621.900	-45.942	0.100
622.000	-30.425	0.100
622.100	-20.482	0.100
622.200	-34.699	0.100
622.300	-26.907	0.100
622.400	-34.300	0.100
622.500	-29.528	0.100
622.600	-30.466	0.100
622.700	-37.374	0.100
622.800	-26.178	0.100
622.900	-28.212	0.100
623.000	-32.492	0.100
623.100	-27.262	0.100
623.200	-41.120	0.100
623.300	-26.465	0.100
623.400	-29.406	0.100
623.500	-22.628	0.100
623.600	-37.131	0.100
623.700	-38.315	0.100
623.800	-25.197	0.100
623.900	-25.208	0.100
624.000	-31.055	0.100
624.100	-25.946	0.100
624.200	-30.213	0.100
624.300	-37.444	0.100
624.400	-24.753	0.100
624.500	-38.509	0.100
624.600	-35.124	0.100
624.700	-17.259	0.100
624.800	-37.040	0.100
624.900	-40.559	0.100
625.000	-18.260	0.100
625.100	-31.029	0.100
625.200	-32.765	0.100
625.300	-31.213	0.100
625.400	-22.637	0.100
625.500	-32.962	0.100
625.600	-37.096	0.100
625.700	-33.583	0.100
625.800	-38.274	0.100
625.900	-26.533	0.100
626.000	-14.553	0.100
626.100	-27.092	0.100
626.200	-28.461	0.100
626.300	-35.631	0.100
626.400	-29.811	0.100
626.500	-23.837	0.100
626.600	-27.038	0.100
626.700	-31.928	0.100
626.800	-53.128	0.100
626.900	-28.788	0.100
627.000	-14.931	0.100
627.100	-25.533	0.100
627.200	-27.580	0.100
627.300	-38.084	0.100
627.400	-20.380	0.100
627.500	-33.456	0.100
627.600	-19.655	0.100
627.700	-22.122	0.100
627.800	-38.741	0.100
627.900	-34.019	0.100
628.000	-17.631	0.100
628.100	-24.933	0.100
628.200	-35.806	0.100
628.300	-42.858	0.100
628.400	-39.521	0.100
628.500	-35.173	0.100
628.600	-39.649	0.100
628.700	-15.322	0.100
628.800	-36.652	0.100
628.900	-39.990	0.100
629.000	-20.325	0.100
629.100	-23.452	0.100
629.200	-30.449	0.100
629.300	-24.547	0.100
629.400	-27.189	0.100
629.500	-34.007	0.100
629.600	-42.821	0.100
629.700	-26.884	0.100
629.800	-17.887	0.100
629.900	-48.805	0.100
630.000	-20.506	0.100
630.100	-29.780	0.100
630.200	-10.969	0.100
630.300	-6.643	0.100
630.400	-1.520	0.100
630.500	9.460	0.100
630.600	21.030	0.100
630.700	22.794	0.100
630.800	34.481	0.100
630.900	25.414	0.100
631.000	34.643	0.100
631.100	13.849	0.100
631.200	18.162	0.100
631.300	21.649	0.100
631.400	29.656	0.100
631.500	25.512	0.100
631.600	43.381	0.100
631.700	22.831	0.100
631.800	33.953	0.100
631.900	28.393	0.100
632.000	13.905	0.100
632.100	23.439	0.100
632.200	13.196	0.100
632.300	28.596	0.100
632.400	17.666	0.100
632.500	18.899	0.100
632.600	26.402	0.100
632.700	15.596	0.100
632.800	19.250	0.100
632.900	10.859	0.100
633.000	25.985	0.100
633.100	9.778	0.100
633.200	7.643	0.100
633.300	7.197	0.100
633.400	5.201	0.100
633.500	17.257	0.100
633.600	-1.645	0.100
633.700	16.237	0.100
633.800	16.539	0.100
633.900	20.290	0.100
634.000	-0.943	0.100
634.100	15.994	0.100
634.200	4.528	0.100
634.300	5.992	0.100
634.400	17.497	0.100
634.500	14.117	0.100
634.600	13.299	0.100
634.700	23.506	0.100
634.800	13.030	0.100
634.900	12.192	0.100
635.000	16.396	0.100
635.100	13.729	0.100
635.200	12.028	0.100
635.300	19.281	0.100
635.400	24.695	0.100
635.500	13.469	0.100
635.600	30.527	0.100
635.700	12.852	0.100
635.800	20.688	0.100
635.900	22.934	0.100
636.000	16.217	0.100
636.100	18.954	0.100
636.200	9.173	0.100
636.300	26.160	0.100
636.400	29.078	0.100
636.500	27.491	0.100
636.600	31.817	0.100
636.700	17.136	0.100
636.800	25.424	0.100
636.900	23.539	0.100
637.000	25.468	0.100
637.100	26.744	0.100
637.200	37.214	0.100
637.300	13.409	0.100
637.400	25.903	0.100
637.500	36.523	0.100
637.600	23.002	0.100
637.700	26.772	0.100
637.800	23.303	0.100
637.900	22.613	0.100
638.000	27.826	0.100
638.100	33.283	0.100
638.200	28.116	0.100
638.300	19.541	0.100
638.400	47.386	0.100
638.500	21.996	0.100
638.600	40.650	0.100
638.700	10.727	0.100
638.800	27.934	0.100
638.900	37.801	0.100
639.000	33.147	0.100
639.100	28.237	0.100
639.200	36.296	0.100
639.300	34.300	0.100
639.400	23.519	0.100
639.500	31.123	0.100
639.600	49.621	0.100
639.700	18.908	0.100
639.800	27.336	0.100
639.900	46.056	0.100
640.000	20.293	0.100
640.100	35.176	0.100
640.200	36.971	0.100
640.300	27.423	0.100
640.400	32.354	0.100
640.500	42.232	0.100
640.600	35.566	0.100
640.700	39.509	0.100
640.800	49.245	0.100
640.900	43.513	0.100
641.000	30.496	0.100
641.100	30.782	0.099
641.200	49.126	0.100
641.300	42.695	0.100
641.400	35.335	0.100
641.500	43.247	0.100
641.600	36.761	0.100
641.700	34.855	0.100
641.800	51.435	0.100
641.900	35.211	0.099
642.000	32.327	0.100
642.100	57.261	0.100
642.200	33.794	0.100
642.300	29.349	0.100
642.400	42.397	0.099
642.500	37.293	0.100
642.600	52.589	0.100
642.700	48.378	0.100
642.800	60.179	0.100
642.900	44.273	0.100
643.000	53.864	0.099
643.100	42.061	0.100
643.200	49.368	0.099
643.300	52.722	0.099
643.400	50.961	0.099
643.500	49.931	0.099
643.600	47.226	0.099
643.700	41.587	0.100
643.800	54.454	0.099
643.900	44.887	0.099
644.000	34.091	0.099
644.100	39.476	0.099
644.200	41.479	0.099
644.300	52.201	0.100
644.400	46.786	0.100
644.500	45.071	0.100
644.600	35.450	0.100
644.700	41.502	0.099
644.800	42.311	0.099
644.900	60.967	0.099
645.000	44.157	0.099
645.100	59.917	0.100
645.200	63.836	0.100
645.300	53.136	0.100
645.400	47.649	0.100
645.500	45.026	0.100
645.600	61.493	0.099
645.700	55.924	0.100
645.800	48.229	0.099
645.900	44.462	0.100
646.000	38.920	0.100
646.100	61.387	0.100
646.200	66.036	0.100
646.300	49.776	0.100
646.400	42.491	0.100
646.500	57.346	0.100
646.600	54.676	0.100
646.700	56.378	0.100
646.800	65.274	0.100
646.900	51.895	0.099
647.000	33.666	0.100
647.100	66.146	0.099
647.200	57.150	0.100
647.300	60.399	0.100
647.400	47.573	0.100
647.500	54.097	0.099
647.600	56.193	0.099
647.700	29.901	0.100
647.800	54.488	0.100
647.900	53.972	0.099
648.000	52.852	0.099
648.100	56.893	0.100
648.200	58.560	0.100
648.300	42.619	0.099
648.400	56.890	0.099
648.500	68.935	0.100
648.600	40.516	0.100
648.700	56.256	0.099
648.800	83.142	0.099
648.900	63.431	0.100
649.000	55.282	0.100
649.100	57.036	0.099
649.200	60.492	0.100
649.300	63.440	0.099
649.400	43.852	0.100
649.500	53.783	0.099
649.600	57.787	0.100
649.700	62.337	0.100
649.800	53.462	0.099
649.900	58.858	0.099
650.000	52.709	0.100
650.100	63.848	0.100
650.200	49.325	0.099
650.300	58.581	0.100
650.400	60.900	0.100
650.500	46.888	0.100
650.600	65.188	0.100
650.700	45.023	0.099
650.800	59.339	0.100
650.900	58.328	0.100
651.000	50.580	0.099
651.100	53.818	0.099
651.200	54.689	0.099
651.300	52.272	0.100
651.400	67.804	0.100
651.500	52.159	0.100
651.600	57.229	0.100
651.700	65.718	0.100
651.800	69.984	0.099
651.900	73.320	0.100
652.000	63.658	0.099
652.100	47.633	0.099
652.200	56.948	0.099
652.300	57.558	0.099
652.400	69.530	0.099
652.500	68.511	0.099
652.600	52.170	0.099
652.700	47.396	0.099
652.800	60.606	0.099
652.900	60.178	0.099
653.000	65.134	0.099
653.100	58.471	0.100
653.200	71.572	0.099
653.300	61.091	0.100
653.400	78.034	0.100
653.500	63.096	0.099
653.600	64.438	0.099
653.700	65.493	0.099
653.800	74.828	0.100
653.900	58.550	0.099
654.000	55.549	0.100
654.100	63.963	0.100
654.200	76.192	0.099
654.300	72.003	0.099
654.400	63.744	0.099
654.500	69.589	0.099
654.600	68.749	0.099
654.700	71.726	0.099
654.800	75.433	0.100
654.900	61.923	0.100
655.000	67.741	0.100
655.100	58.626	0.100
655.200	77.879	0.099
655.300	80.527	0.099
655.400	61.925	0.099
655.500	61.754	0.099
655.600	60.863	0.099
655.700	72.725	0.099
655.800	67.259	0.099
655.900	70.812	0.100
656.000	69.901	0.099
656.100	77.265	0.099
656.200	57.500	0.100
656.300	67.339	0.100
656.400	78.195	0.099
656.500	49.014	0.099
656.600	73.640	0.099
656.700	68.857	0.099
656.800	76.959	0.099
656.900	70.895	0.099
657.000	78.608	0.099
657.100	74.979	0.099
657.200	70.201	0.099
657.300	52.220	0.099
657.400	86.381	0.099
657.500	66.804	0.100
657.600	72.559	0.100
657.700	75.203	0.099
657.800	77.748	0.100
657.900	74.332	0.099
658.000	57.570	0.099
658.100	79.712	0.100
658.200	96.716	0.100
658.300	74.634	0.100
658.400	70.897	0.100
658.500	69.129	0.099
658.600	60.684	0.099
658.700	78.811	0.100
658.800	69.023	0.099
658.900	69.680	0.100
659.000	70.222	0.099
659.100	63.564	0.099
659.200	85.748	0.099
659.300	81.680	0.100
659.400	78.087	0.100
659.500	67.927	0.100
659.600	81.174	0.099
659.700	80.700	0.100
659.800	64.609	0.100
659.900	75.999	0.099
660.000	76.761	0.099
660.100	74.299	0.099
660.200	74.489	0.100
660.300	68.343	0.100
660.400	90.689	0.099
660.500	64.048	0.099
660.600	77.084	0.100
660.700	80.270	0.099
660.800	70.183	0.099
660.900	69.841	0.100
661.000	90.764	0.100
661.100	105.777	0.099
661.200	71.288	0.099
661.300	77.662	0.099
661.400	78.533	0.099
661.500	76.053	0.100
661.600	86.600	0.099
661.700	80.102	0.099
661.800	79.834	0.099
661.900	86.727	0.099
662.000	88.832	0.099
662.100	74.129	0.100
662.200	83.700	0.099
662.300	91.702	0.099
662.400	66.597	0.099
662.500	78.605	0.099
662.600	78.041	0.099
662.700	59.737	0.100
662.800	76.480	0.099
662.900	82.476	0.100
663.000	68.271	0.100
663.100	85.479	0.099
663.200	86.321	0.099
663.300	69.760	0.100
663.400	64.326	0.099
663.500	82.991	0.100
663.600	76.616	0.099
663.700	83.839	0.099
663.800	63.511	0.099
663.900	82.867	0.099
664.000	83.954	0.099
664.100	74.203	0.099
664.200	79.108	0.099
664.300	75.162	0.099
664.400	79.725	0.099
664.500	72.382	0.099
664.600	94.827	0.099
664.700	73.504	0.099
664.800	89.948	0.100
664.900	90.967	0.099
665.000	73.678	0.099
665.100	69.641	0.099
665.200	88.321	0.099
665.300	97.786	0.099
665.400	86.132	0.099
665.500	79.838	0.099
665.600	98.024	0.100
665.700	86.805	0.099
665.800	79.098	0.099
665.900	66.529	0.099
666.000	95.075	0.100
666.100	88.302	0.099
666.200	73.399	0.100
666.300	102.005	0.100
666.400	79.665	0.099
666.500	86.644	0.099
666.600	75.729	0.099
666.700	58.616	0.099
666.800	90.853	0.100
666.900	87.298	0.099
667.000	45.930	0.099
667.100	74.363	0.099
667.200	79.991	0.099
667.300	76.557	0.099
667.400	79.652	0.099
667.500	98.915	0.100
667.600	76.352	0.100
667.700	84.153	0.100
667.800	93.793	0.099
667.900	96.467	0.099
668.000	90.249	0.100
668.100	72.750	0.099
668.200	85.619	0.099
668.300	82.139	0.099
668.400	78.949	0.099
668.500	71.841	0.099
668.600	60.128	0.099
668.700	89.234	0.099
668.800	71.682	0.100
668.900	83.187	0.099
669.000	73.724	0.099
669.100	80.753	0.099
669.200	96.013	0.099
669.300	70.552	0.100
669.400	89.442	0.100
669.500	87.930	0.100
669.600	88.137	0.099
669.700	64.903	0.100
669.800	77.742	0.099
669.900	81.063	0.099
670.000	72.809	0.099
670.100	77.285	0.099
670.200	80.743	0.099
670.300	77.914	0.099
670.400	87.401	0.099
670.500	66.349	0.099
670.600	75.345	0.099
670.700	86.606	0.099
670.800	79.362	0.100
670.900	83.163	0.099
671.000	85.716	0.099
671.100	91.347	0.099
671.200	80.931	0.099
671.300	85.844	0.100
671.400	63.875	0.100
671.500	86.270	0.100
671.600	77.745	0.099
671.700	95.185	0.099
671.800	80.972	0.099
671.900	72.426	0.099
672.000	69.339	0.099
672.100	76.481	0.100
672.200	81.950	0.099
672.300	79.739	0.099
672.400	94.554	0.099
672.500	64.874	0.099
672.600	77.606	0.099
672.700	72.691	0.099
672.800	83.731	0.100
672.900	87.872	0.099
673.000	78.630	0.100
673.100	68.771	0.099
673.200	80.724	0.100
673.300	66.784	0.100
673.400	82.145	0.100
673.500	88.190	0.099
673.600	64.502	0.100
673.700	88.897	0.099
673.800	80.984	0.100
673.900	81.164	0.099
674.000	60.521	0.100
674.100	74.726	0.099
674.200	77.204	0.099
674.300	84.375	0.099
674.400	83.156	0.100
674.500	54.636	0.100
674.600	69.079	0.100
674.700	90.472	0.099
674.800	72.533	0.100
674.900	94.004	0.099
675.000	78.066	0.100
675.100	88.510	0.100
675.200	73.062	0.100
675.300	76.245	0.100
675.400	65.944	0.100
675.500	73.492	0.099
675.600	77.579	0.100
675.700	95.394	0.099
675.800	69.142	0.099
675.900	69.731	0.100
676.000	75.543	0.099
676.100	69.302	0.099
676.200	70.797	0.100
676.300	76.018	0.100
676.400	74.497	0.099
676.500	81.969	0.099
676.600	74.700	0.100
676.700	83.277	0.099
676.800	73.135	0.100
676.900	75.822	0.099
677.000	73.139	0.099
677.100	73.086	0.100
677.200	84.640	0.100
677.300	81.614	0.100
677.400	68.657	0.100
677.500	82.553	0.100
677.600	66.731	0.099
677.700	59.983	0.100
677.800	79.482	0.100
677.900	75.340	0.100
678.000	73.565	0.100
678.100	76.224	0.100
678.200	75.646	0.099
678.300	87.633	0.100
678.400	59.813	0.100
678.500	70.275	0.099
678.600	88.762	0.100
678.700	82.166	0.100
678.800	83.400	0.100
678.900	83.288	0.100
679.000	64.732	0.100
679.100	63.254	0.100
679.200	85.771	0.100
679.300	64.019	0.099
679.400	60.210	0.100
679.500	64.371	0.100
679.600	82.998	0.100
679.700	65.392	0.100
679.800	94.833	0.099
679.900	73.000	0.100
680.000	71.443	0.099
680.100	71.239	0.100
680.200	82.584	0.099
680.300	71.769	0.100
680.400	68.413	0.100
680.500	71.428	0.099
680.600	81.442	0.100
680.700	71.106	0.100
680.800	64.491	0.100
680.900	54.843	0.100
681.000	82.304	0.099
681.100	73.724	0.100
681.200	79.674	0.099
681.300	90.867	0.100
681.400	75.111	0.100
681.500	78.706	0.100
681.600	80.375	0.100
681.700	62.669	0.099
681.800	65.433	0.099
681.900	76.581	0.100
682.000	74.596	0.100
682.100	82.283	0.100
682.200	75.754	0.100
682.300	62.561	0.099
682.400	77.807	0.100
682.500	71.374	0.100
682.600	70.742	0.100
682.700	75.732	0.099
682.800	78.949	0.100
682.900	81.081	0.100
683.000	59.037	0.099
683.100	84.197	0.099
683.200	73.220	0.100
683.300	76.551	0.100
683.400	64.373	0.099
683.500	76.631	0.099
683.600	69.238	0.099
683.700	73.602	0.099
683.800	82.405	0.100
683.900	59.549	0.099
684.000	77.736	0.100
684.100	95.641	0.099
684.200	76.024	0.100
684.300	77.056	0.100
684.400	66.246	0.099
684.500	79.558	0.099
684.600	69.099	0.100
684.700	75.111	0.099
684.800	68.392	0.100
684.900	60.185	0.100
685.000	70.053	0.100
685.100	75.194	0.100
685.200	75.200	0.100
685.300	62.536	0.099
685.400	88.939	0.100
685.500	64.780	0.099
685.600	91.857	0.100
685.700	65.721	0.099
685.800	76.330	0.099
685.900	66.717	0.100
686.000	62.687	0.100
686.100	64.859	0.099
686.200	82.869	0.099
686.300	70.011	0.100
686.400	73.217	0.099
686.500	91.061	0.099
686.600	60.592	0.100
686.700	68.400	0.100
686.800	59.988	0.100
686.900	79.934	0.099
687.000	56.123	0.099
687.100	73.165	0.099
687.200	88.131	0.100
687.300	65.473	0.099
687.400	71.756	0.099
687.500	78.141	0.100
687.600	63.159	0.100
687.700	75.988	0.100
687.800	72.649	0.099
687.900	82.026	0.099
688.000	64.898	0.100
688.100	52.963	0.100
688.200	74.430	0.099
688.300	74.125	0.100
688.400	84.787	0.099
688.500	68.400	0.099
688.600	69.498	0.099
688.700	77.594	0.099
688.800	80.919	0.099
688.900	70.269	0.099
689.000	63.996	0.099
689.100	71.395	0.099
689.200	76.527	0.100
689.300	68.111	0.100
689.400	65.397	0.100
689.500	79.269	0.100
689.600	66.790	0.100
689.700	65.231	0.100
689.800	74.506	0.099
689.900	69.649	0.099
690.000	78.788	0.100
690.100	73.914	0.100
690.200	74.628	0.100
690.300	39.366	0.100
690.400	52.521	0.100
690.500	41.544	0.100
690.600	17.491	0.099
690.700	15.559	0.099
690.800	32.679	0.100
690.900	6.195	0.099
691.000	-6.150	0.100
691.100	-13.622	0.100
691.200	-8.750	0.100
691.300	-31.535	0.100
691.400	-40.209	0.100
691.500	-39.902	0.099
691.600	-47.565	0.099
691.700	-43.971	0.099
691.800	-57.061	0.099
691.900	-48.500	0.099
692.000	-37.673	0.100
692.100	-65.990	0.099
692.200	-51.496	0.099
692.300	-66.458	0.100
692.400	-57.525	0.099
692.500	-57.207	0.099
692.600	-81.537	0.100
692.700	-44.555	0.099
692.800	-58.018	0.099
692.900	-70.258	0.100
693.000	-72.356	0.099
693.100	-57.748	0.100
693.200	-52.910	0.099
693.300	-66.183	0.099
693.400	-60.218	0.100
693.500	-56.275	0.099
693.600	-61.461	0.099
693.700	-67.086	0.099
693.800	-76.350	0.099
693.900	-64.088	0.100
694.000	-64.467	0.100
694.100	-59.718	0.100
694.200	-54.464	0.100
694.300	-80.488	0.100
694.400	-61.432	0.099
694.500	-66.968	0.100
694.600	-73.552	0.099
694.700	-39.351	0.099
694.800	-59.857	0.100
694.900	-69.400	0.100
695.000	-68.791	0.099
695.100	-61.345	0.099
695.200	-53.240	0.100
695.300	-56.189	0.100
695.400	-39.962	0.099
695.500	-46.841	0.099
695.600	-53.980	0.100
695.700	-79.514	0.099
695.800	-54.068	0.100
695.900	-43.677	0.099
696.000	-48.895	0.100
696.100	-46.576	0.100
696.200	-45.720	0.099
696.300	-56.879	0.099
696.400	-49.839	0.099
696.500	-60.560	0.099
696.600	-42.537	0.100
696.700	-52.025	0.099
696.800	-51.978	0.100
696.900	-44.708	0.100
697.000	-67.299	0.100
697.100	-63.900	0.099
697.200	-51.675	0.099
697.300	-48.762	0.100
697.400	-50.433	0.099
697.500	-49.691	0.100
697.600	-39.549	0.100
697.700	-64.423	0.099
697.800	-59.298	0.100
697.900	-54.774	0.099
698.000	-53.829	0.099
698.100	-64.792	0.100
698.200	-37.716	0.100
698.300	-52.052	0.100
698.400	-47.085	0.100
698.500	-42.223	0.100
698.600	-49.034	0.100
698.700	-64.482	0.100
698.800	-58.258	0.100
698.900	-47.581	0.099
699.000	-61.394	0.100
699.100	-43.433	0.100
699.200	-58.224	0.100
699.300	-52.368	0.100
699.400	-57.300	0.099
699.500	-42.398	0.100
699.600	-53.620	0.100
699.700	-52.748	0.099
699.800	-50.520	0.099
699.900	-46.378	0.100
700.000	-63.194	0.099
700.100	-55.613	0.100
700.200	-72.367	0.100
700.300	-44.230	0.100
700.400	-65.998	0.100
700.500	-52.178	0.100
700.600	-73.152	0.100
700.700	-57.114	0.100
700.800	-59.680	0.100
700.900	-57.377	0.100
701.000	-59.151	0.100
701.100	-47.433	0.100
701.200	-80.937	0.100
701.300	-42.611	0.100
701.400	-43.628	0.099
701.500	-54.774	0.100
701.600	-54.492	0.099
701.700	-64.923	0.100
701.800	-57.276	0.100
701.900	-69.910	0.100
702.000	-55.455	0.100
702.100	-50.222	0.100
702.200	-56.766	0.100
702.300	-51.131	0.100
702.400	-55.431	0.100
702.500	-64.414	0.100
702.600	-53.250	0.100
702.700	-57.766	0.100
702.800	-55.373	0.100
702.900	-51.817	0.099
703.000	-52.887	0.099
703.100	-57.513	0.100
703.200	-60.093	0.100
703.300	-53.925	0.099
703.400	-67.620	0.099
703.500	-36.579	0.100
703.600	-55.962	0.100
703.700	-46.612	0.100
703.800	-67.134	0.100
703.900	-62.354	0.100
704.000	-52.101	0.100
704.100	-47.180	0.099
704.200	-50.800	0.100
704.300	-52.082	0.099
704.400	-48.005	0.100
704.500	-54.486	0.100
704.600	-53.087	0.099
704.700	-60.940	0.100
704.800	-60.624	0.099
704.900	-41.072	0.099
705.000	-47.268	0.100
705.100	-57.666	0.099
705.200	-57.292	0.099
705.300	-57.764	0.100
705.400	-42.205	0.100
705.500	-52.521	0.099
705.600	-62.657	0.099
705.700	-46.367	0.099
705.800	-62.896	0.099
705.900	-44.168	0.099
706.000	-50.572	0.100
706.100	-70.225	0.099
706.200	-45.981	0.100
706.300	-66.906	0.100
706.400	-44.204	0.099
706.500	-47.545	0.099
706.600	-57.869	0.100
706.700	-50.606	0.100
706.800	-47.815	0.100
706.900	-52.311	0.100
707.000	-41.353	0.099
707.100	-52.582	0.099
707.200	-59.695	0.099
707.300	-48.768	0.099
707.400	-55.220	0.099
707.500	-71.761	0.100
707.600	-73.562	0.099
707.700	-69.833	0.100
707.800	-23.507	0.099
707.900	-47.991	0.099
708.000	-60.396	0.100
708.100	-50.674	0.099
708.200	-66.725	0.099
708.300	-45.952	0.100
708.400	-46.072	0.100
708.500	-48.679	0.099
708.600	-48.466	0.099
708.700	-67.182	0.099
708.800	-54.099	0.100
708.900	-45.827	0.100
709.000	-37.449	0.099
709.100	-50.102	0.099
709.200	-65.332	0.100
709.300	-42.484	0.099
709.400	-59.923	0.099
709.500	-56.662	0.099
709.600	-49.549	0.099
709.700	-42.459	0.100
709.800	-48.888	0.099
709.900	-50.592	0.099
710.000	-43.781	0.100
710.100	-62.433	0.100
710.200	-44.152	0.099
710.300	-59.327	0.099
710.400	-41.361	0.100
710.500	-55.858	0.099
710.600	-46.402	0.100
710.700	-50.918	0.099
710.800	-68.404	0.099
710.900	-31.940	0.100
711.000	-51.431	0.099
711.100	-49.019	0.099
711.200	-42.368	0.099
711.300	-57.607	0.099
711.400	-50.603	0.099
711.500	-24.869	0.099
711.600	-41.751	0.100
711.700	-66.800	0.100
711.800	-59.447	0.100
711.900	-50.009	0.099
712.000	-55.395	0.099
712.100	-54.501	0.099
712.200	-37.188	0.100
712.300	-51.051	0.099
712.400	-41.934	0.099
712.500	-48.135	0.100
712.600	-68.634	0.100
712.700	-38.734	0.100
712.800	-32.268	0.100
712.900	-39.860	0.099
713.000	-49.958	0.099
713.100	-52.757	0.099
713.200	-42.290	0.099
713.300	-37.926	0.099
713.400	-55.919	0.099
713.500	-47.996	0.100
713.600	-50.282	0.099
713.700	-41.416	0.099
713.800	-55.256	0.099
713.900	-37.429	0.100
714.000	-37.283	0.099
714.100	-56.988	0.099
714.200	-35.685	0.099
714.300	-55.290	0.100
714.400	-43.663	0.099
714.500	-40.436	0.099
714.600	-42.670	0.099
714.700	-37.524	0.099
714.800	-48.857	0.099
714.900	-48.893	0.099
715.000	-49.078	0.099
715.100	-52.558	0.100
715.200	-47.483	0.099
715.300	-42.120	0.099
715.400	-46.698	0.099
715.500	-24.636	0.099
715.600	-54.156	0.100
715.700	-46.241	0.099
715.800	-55.602	0.099
715.900	-46.188	0.099
716.000	-33.285	0.099
716.100	-43.001	0.099
716.200	-47.371	0.099
716.300	-46.540	0.099
716.400	-54.265	0.099
716.500	-40.427	0.100
716.600	-37.719	0.100
716.700	-55.095	0.099
716.800	-42.437	0.099
716.900	-63.233	0.099
717.000	-52.515	0.099
717.100	-15.942	0.100
717.200	-56.410	0.099
717.300	-50.356	0.099
717.400	-17.679	0.099
717.500	-44.230	0.100
717.600	-49.352	0.099
717.700	-35.041	0.100
717.800	-35.547	0.099
717.900	-51.037	0.099
718.000	-51.769	0.100
718.100	-42.207	0.099
718.200	-47.203	0.099
718.300	-32.047	0.100
718.400	-43.739	0.099
718.500	-56.813	0.100
718.600	-39.678	0.099
718.700	-35.297	0.099
718.800	-51.804	0.099
718.900	-33.257	0.099
719.000	-46.184	0.099
719.100	-41.177	0.100
719.200	-41.347	0.099
719.300	-46.164	0.099
719.400	-59.883	0.099
719.500	-22.688	0.099
719.600	-34.278	0.099
719.700	-50.513	0.100
719.800	-44.632	0.099
719.900	-45.625	0.099
720.000	-48.533	0.099
720.100	-55.557	0.099
720.200	-38.154	0.099
720.300	-45.325	0.099
720.400	-48.589	0.099
720.500	-44.592	0.100
720.600	-33.441	0.099
720.700	-40.256	0.100
720.800	-45.395	0.099
720.900	-41.924	0.099
721.000	-39.026	0.099
721.100	-40.747	0.099
721.200	-41.630	0.100
721.300	-36.525	0.099
721.400	-49.303	0.099
721.500	-28.158	0.099
721.600	-67.379	0.100
721.700	-45.248	0.099
721.800	-31.140	0.099
721.900	-37.385	0.099
722.000	-47.303	0.099
722.100	-35.822	0.099
722.200	-50.758	0.099
722.300	-44.753	0.099
722.400	-50.188	0.099
722.500	-41.955	0.099
722.600	-26.789	0.099
722.700	-31.743	0.099
722.800	-47.569	0.099
722.900	-36.082	0.099
723.000	-49.878	0.099
723.100	-39.609	0.099
723.200	-55.717	0.099
723.300	-35.646	0.099
723.400	-39.215	0.099
723.500	-31.323	0.099
723.600	-41.038	0.099
723.700	-43.273	0.099
723.800	-44.863	0.099
723.900	-40.693	0.099
724.000	-35.342	0.099
724.100	-26.070	0.099
724.200	-46.185	0.099
724.300	-50.577	0.099
724.400	-55.062	0.099
724.500	-53.874	0.099
724.600	-31.292	0.099
724.700	-42.157	0.099
724.800	-47.955	0.099
724.900	-41.380	0.099
725.000	-26.356	0.099
725.100	-29.488	0.099
725.200	-33.981	0.099
725.300	-46.564	0.099
725.400	-43.243	0.099
725.500	-43.929	0.099
725.600	-44.935	0.099
725.700	-38.145	0.099
725.800	-36.607	0.099
725.900	-50.033	0.099
726.000	-35.724	0.100
726.100	-47.650	0.099
726.200	-36.054	0.099
726.300	-42.334	0.099
726.400	-28.080	0.099
726.500	-45.414	0.099
726.600	-30.931	0.099
726.700	-32.747	0.100
726.800	-50.067	0.099
726.900	-42.721	0.100
727.000	-24.811	0.100
727.100	-33.879	0.099
727.200	-37.569	0.100
727.300	-46.651	0.099
727.400	-43.464	0.099
727.500	-26.492	0.099
727.600	-43.510	0.099
727.700	-37.041	0.099
727.800	-39.987	0.099
727.900	-31.816	0.100
728.000	-43.317	0.099
728.100	-11.943	0.099
728.200	-47.115	0.099
728.300	-38.736	0.099
728.400	-38.995	0.099
728.500	-40.993	0.099
728.600	-51.113	0.099
728.700	-29.660	0.099
728.800	-48.593	0.099
728.900	-36.710	0.100
729.000	-40.109	0.099
729.100	-29.796	0.100
729.200	-42.514	0.100
729.300	-41.594	0.099
729.400	-43.966	0.099
729.500	-41.152	0.099
729.600	-25.944	0.099
729.700	-33.650	0.099
729.800	-45.812	0.100
729.900	-41.784	0.099
730.000	-29.464	0.100
730.100	-39.347	0.100
730.200	-42.788	0.099
730.300	-27.283	0.099
730.400	-35.498	0.099
730.500	-45.809	0.100
730.600	-50.394	0.099
730.700	-37.720	0.099
730.800	-45.675	0.099
730.900	-38.953	0.099
731.000	-42.481	0.099
731.100	-30.612	0.100
731.200	-43.150	0.099
731.300	-32.129	0.099
731.400	-32.620	0.099
731.500	-43.289	0.099
731.600	-45.383	0.099
731.700	-44.173	0.099
731.800	-45.577	0.099
731.900	-33.693	0.099
732.000	-38.505	0.099
732.100	-32.290	0.099
732.200	-60.281	0.099
732.300	-24.894	0.099
732.400	-40.601	0.099
732.500	-35.867	0.099
732.600	-43.677	0.099
732.700	-42.293	0.099
732.800	-39.269	0.099
732.900	-37.709	0.099
733.000	-45.602	0.099
733.100	-41.855	0.100
733.200	-32.660	0.099
733.300	-41.765	0.099
733.400	-26.281	0.099
733.500	-37.978	0.099
733.600	-35.384	0.099
733.700	-44.890	0.100
733.800	-30.264	0.100
733.900	-36.823	0.099
734.000	-47.136	0.099
734.100	-37.683	0.099
734.200	-36.485	0.099
734.300	-37.370	0.100
734.400	-41.865	0.099
734.500	-16.482	0.099
734.600	-29.533	0.100
734.700	-50.313	0.099
734.800	-38.252	0.100
734.900	-32.435	0.099
735.000	-33.279	0.099
735.100	-35.922	0.100
735.200	-49.753	0.099
735.300	-21.718	0.100
735.400	-41.955	0.099
735.500	-38.414	0.100
735.600	-45.704	0.100
735.700	-37.894	0.100
735.800	-36.524	0.100
735.900	-43.498	0.099
736.000	-35.890	0.099
736.100	-39.986	0.099
736.200	-31.460	0.100
736.300	-39.339	0.100
736.400	-36.386	0.099
736.500	-23.442	0.099
736.600	-34.492	0.099
736.700	-38.822	0.100
736.800	-29.223	0.100
736.900	-39.372	0.099
737.000	-28.553	0.100
737.100	-44.633	0.099
737.200	-22.406	0.099
737.300	-55.998	0.099
737.400	-39.456	0.099
737.500	-21.053	0.100
737.600	-18.827	0.099
737.700	-35.851	0.099
737.800	-36.074	0.099
737.900	-52.808	0.099
738.000	-35.610	0.099
738.100	-29.684	0.099
738.200	-40.271	0.099
738.300	-42.170	0.100
738.400	-39.500	0.099
738.500	-53.306	0.099
738.600	-35.995	0.099
738.700	-49.701	0.099
738.800	-38.671	0.099
738.900	-33.269	0.099
739.000	-28.056	0.100
739.100	-47.332	0.099
739.200	-32.919	0.099
739.300	-54.317	0.099
739.400	-27.282	0.099
739.500	-25.531	0.099
739.600	-42.738	0.099
739.700	-33.998	0.099
739.800	-32.049	0.099
739.900	-41.193	0.100
740.000	-40.237	0.099
740.100	-31.954	0.099
740.200	-40.655	0.099
740.300	-27.911	0.099
740.400	-51.167	0.099
740.500	-26.330	0.099
740.600	-36.288	0.100
740.700	-41.323	0.099
740.800	-51.041	0.099
740.900	-44.528	0.099
741.000	-37.232	0.099
741.100	-49.767	0.100
741.200	-26.814	0.099
741.300	-28.093	0.099
741.400	-37.461	0.099
741.500	-40.894	0.099
741.600	-25.100	0.100
741.700	-25.547	0.099
741.800	-35.170	0.099
741.900	-33.631	0.099
742.000	-40.729	0.099
742.100	-29.930	0.099
742.200	-39.748	0.099
742.300	-43.557	0.099
742.400	-56.053	0.099
742.500	-32.751	0.099
742.600	-24.373	0.099
742.700	-28.810	0.100
742.800	-46.693	0.100
742.900	-37.363	0.099
743.000	-35.603	0.099
743.100	-33.806	0.100
743.200	-38.647	0.099
743.300	-29.999	0.100
743.400	-51.606	0.099
743.500	-21.804	0.099
743.600	-42.208	0.099
743.700	-43.155	0.100
743.800	-37.290	0.099
743.900	-25.859	0.100
744.000	-27.229	0.100
744.100	-34.816	0.099
744.200	-25.244	0.100
744.300	-38.646	0.100
744.400	-32.984	0.100
744.500	-36.368	0.099
744.600	-41.556	0.099
744.700	-36.493	0.100
744.800	-31.992	0.099
744.900	-47.529	0.099
745.000	-38.176	0.099
745.100	-44.261	0.099
745.200	-17.927	0.099
745.300	-47.109	0.099
745.400	-37.303	0.099
745.500	-20.064	0.099
745.600	-32.390	0.099
745.700	-26.880	0.100
745.800	-32.350	0.099
745.900	-34.648	0.099
746.000	-30.627	0.100
746.100	-43.249	0.099
746.200	-32.383	0.099
746.300	-25.496	0.099
746.400	-32.761	0.100
746.500	-28.676	0.099
746.600	-33.555	0.099
746.700	-57.452	0.099
746.800	-47.576	0.099
746.900	-30.186	0.099
747.000	-49.779	0.099
747.100	-20.418	0.100
747.200	-25.621	0.100
747.300	-44.234	0.099
747.400	-38.030	0.099
747.500	-26.652	0.100
747.600	-33.644	0.100
747.700	-34.296	0.099
747.800	-34.764	0.100
747.900	-34.754	0.099
748.000	-37.917	0.099
748.100	-47.307	0.099
748.200	-35.704	0.099
748.300	-35.886	0.099
748.400	-45.190	0.099
748.500	-27.551	0.099
748.600	-28.594	0.099
748.700	-41.027	0.099
748.800	-16.867	0.100
748.900	-30.638	0.099
749.000	-35.805	0.099
749.100	-26.362	0.100
749.200	-23.550	0.100
749.300	-33.832	0.100
749.400	-36.764	0.100
749.500	-41.450	0.099
749.600	-29.563	0.099
749.700	-30.363	0.099
749.800	-37.203	0.099
749.900	-47.079	0.099
750.000	-20.996	0.099
750.100	-32.633	0.099
750.200	-42.533	0.099
750.300	-39.450	0.099
750.400	-21.553	0.100
750.500	-43.389	0.100
750.600	-32.692	0.099
750.700	-33.941	0.100
750.800	-42.671	0.099
750.900	-23.090	0.100
751.000	-40.971	0.100
751.100	-32.127	0.100
751.200	-26.894	0.100
751.300	-18.870	0.100
751.400	-25.181	0.100
751.500	-43.048	0.099
751.600	-35.236	0.100
751.700	-35.227	0.099
751.800	-36.856	0.099
751.900	-34.003	0.099
752.000	-43.388	0.099
752.100	-47.561	0.099
752.200	-25.011	0.100
752.300	-44.846	0.099
752.400	-38.607	0.099
752.500	-36.749	0.099
752.600	-29.858	0.099
752.700	-29.234	0.100
752.800	-32.030	0.099
752.900	-44.219	0.099
753.000	-27.279	0.100
753.100	-38.278	0.099
753.200	-31.897	0.099
753.300	-40.194	0.099
753.400	-31.960	0.099
753.500	-17.474	0.100
753.600	-35.385	0.099
753.700	-36.364	0.100
753.800	-36.614	0.099
753.900	-22.512	0.099
754.000	-27.551	0.099
754.100	-27.809	0.099
754.200	-42.447	0.099
754.300	-31.967	0.099
754.400	-36.388	0.100
754.500	-37.084	0.099
754.600	-33.727	0.099
754.700	-49.205	0.099
754.800	-32.172	0.099
754.900	-33.503	0.100
755.000	-38.953	0.099
755.100	-27.055	0.100
755.200	-47.344	0.099
755.300	-39.510	0.099
755.400	-40.272	0.100
755.500	-24.645	0.099
755.600	-31.629	0.100
755.700	-33.352	0.099
755.800	-26.836	0.099
755.900	-36.375	0.099
756.000	-29.382	0.099
756.100	-27.000	0.099
756.200	-37.091	0.099
756.300	-42.707	0.099
756.400	-43.299	0.100
756.500	-49.214	0.099
756.600	-21.251	0.099
756.700	-26.988	0.099
756.800	-32.052	0.099
756.900	-37.686	0.099
757.000	-36.258	0.099
757.100	-34.952	0.099
757.200	-37.836	0.099
757.300	-23.580	0.099
757.400	-37.529	0.099
757.500	-41.786	0.099
757.600	-17.982	0.099
757.700	-40.995	0.099
757.800	-38.255	0.099
757.900	-26.255	0.099
758.000	-22.434	0.100
758.100	-25.868	0.100
758.200	-34.272	0.099
758.300	-33.517	0.100
758.400	-22.506	0.100
758.500	-33.767	0.099
758.600	-37.986	0.099
758.700	-32.254	0.100
758.800	-44.132	0.099
758.900	-31.913	0.099
759.000	-42.509	0.099
759.100	-27.949	0.099
759.200	-12.657	0.100
759.300	-38.282	0.099
759.400	-30.904	0.099
759.500	-35.380	0.099
759.600	-37.483	0.099
759.700	-46.903	0.099
759.800	-14.444	0.099
759.900	-38.184	0.099
760.000	-29.604	0.100
760.100	-36.168	0.099
760.200	-26.445	0.099
760.300	-16.394	0.100
760.400	-27.990	0.100
760.500	-20.607	0.099
760.600	-42.025	0.099
760.700	-40.519	0.099
760.800	-38.490	0.099
760.900	-36.984	0.099
761.000	-47.276	0.099
761.100	-28.918	0.100
761.200	-27.801	0.099
761.300	-39.845	0.099
761.400	-30.846	0.099
761.500	-39.379	0.099
761.600	-29.261	0.099
761.700	-18.303	0.099
761.800	-42.342	0.099
761.900	-28.317	0.099
762.000	-34.428	0.099
762.100	-41.750	0.099
762.200	-31.686	0.099
762.300	-23.749	0.099
762.400	-22.795	0.099
762.500	-27.090	0.099
762.600	-38.431	0.099
762.700	-40.544	0.100
762.800	-37.245	0.099
762.900	-20.905	0.099
763.000	-35.162	0.099
763.100	-36.425	0.100
763.200	-42.077	0.100
763.300	-28.554	0.099
763.400	-23.144	0.099
763.500	-44.562	0.099
763.600	-42.030	0.099
763.700	-37.813	0.099
763.800	-27.180	0.099
763.900	-23.069	0.099
764.000	-27.696	0.099
764.100	-38.341	0.099
764.200	-45.295	0.099
764.300	-22.696	0.099
764.400	-42.174	0.099
764.500	-31.805	0.099
764.600	-33.814	0.099
764.700	-51.832	0.099
764.800	-34.737	0.099
764.900	-32.523	0.099
765.000	-35.087	0.099
765.100	-35.342	0.100
765.200	-29.780	0.099
765.300	-36.125	0.099
765.400	-41.412	0.100
765.500	-35.158	0.099
765.600	-35.540	0.099
765.700	-2.602	0.099
765.800	-39.474	0.099
765.900	-27.920	0.100
766.000	-20.230	0.100
766.100	-45.819	0.099
766.200	-21.615	0.099
766.300	-52.104	0.099
766.400	-33.694	0.099
766.500	-35.634	0.099
766.600	-36.895	0.099
766.700	-43.103	0.099
766.800	-35.129	0.099
766.900	-33.752	0.099
767.000	-30.072	0.099
767.100	-42.702	0.099
767.200	-19.091	0.099
767.300	-18.429	0.099
767.400	-21.144	0.099
767.500	-26.659	0.100
767.600	-23.064	0.099
767.700	-36.854	0.099
767.800	-35.579	0.099
767.900	-39.460	0.099
768.000	-26.465	0.099
768.100	-35.669	0.099
768.200	-33.305	0.100
768.300	-39.326	0.099
768.400	-42.683	0.099
768.500	-38.446	0.099
768.600	-16.295	0.099
768.700	-33.328	0.100
768.800	-35.012	0.099
768.900	-12.415	0.099
769.000	-36.725	0.099
769.100	-52.292	0.099
769.200	-16.496	0.099
769.300	-31.811	0.099
769.400	-37.423	0.099
769.500	-32.558	0.099
769.600	-38.223	0.099
769.700	-37.417	0.099
769.800	-29.528	0.099
769.900	-15.876	0.099
770.000	-47.897	0.100
770.100	-15.215	0.099
770.200	-26.898	0.099
770.300	-27.453	0.099
770.400	-43.379	0.099
770.500	-27.844	0.099
770.600	-26.919	0.099
770.700	-43.579	0.099
770.800	-17.422	0.099
770.900	-41.749	0.099
771.000	-22.568	0.099
771.100	-45.489	0.099
771.200	-30.632	0.099
771.300	-14.777	0.099
771.400	-47.451	0.099
771.500	-18.777	0.099
771.600	-37.840	0.099
771.700	-21.481	0.099
771.800	-24.082	0.099
771.900	-27.421	0.099
772.000	-19.619	0.099
772.100	-42.720	0.099
772.200	-27.711	0.099
772.300	-24.510	0.099
772.400	-28.403	0.099
772.500	-42.392	0.099
772.600	-40.602	0.099
772.700	-12.944	0.099
772.800	-44.851	0.099
772.900	-34.977	0.099
773.000	-36.787	0.099
773.100	-33.478	0.099
773.200	-21.812	0.099
773.300	-27.432	0.099
773.400	-22.756	0.099
773.500	-28.261	0.099
773.600	-50.172	0.099
773.700	-38.164	0.099
773.800	-37.258	0.099
773.900	-31.271	0.100
774.000	-23.933	0.099
774.100	-41.806	0.099
774.200	-17.612	0.099
774.300	-40.053	0.099
774.400	-28.232	0.099
774.500	-20.433	0.099
774.600	-45.610	0.099
774.700	-26.524	0.099
774.800	-26.087	0.099
774.900	-32.544	0.099
775.000	-26.415	0.099
775.100	-43.342	0.099
775.200	-20.864	0.099
775.300	-31.883	0.099
775.400	-22.425	0.100
775.500	-16.722	0.099
775.600	-36.244	0.099
775.700	-41.527	0.100
775.800	-23.584	0.099
775.900	-20.746	0.099
776.000	-33.962	0.100
776.100	-23.593	0.099
776.200	-40.247	0.099
776.300	-25.167	0.100
776.400	-28.442	0.099
776.500	-30.931	0.099
776.600	-31.999	0.099
776.700	-28.160	0.100
776.800	-37.013	0.100
776.900	-47.592	0.099
777.000	-24.282	0.099
777.100	-30.515	0.099
777.200	-24.332	0.099
777.300	-41.935	0.099
777.400	-51.842	0.099
777.500	-34.011	0.099
777.600	-40.664	0.099
777.700	-33.675	0.099
777.800	-29.547	0.099
777.900	-36.912	0.099
778.000	-24.701	0.099
778.100	-34.218	0.099
778.200	-26.963	0.099
778.300	-31.998	0.099
778.400	-34.930	0.099
778.500	-46.244	0.099
778.600	-28.809	0.099
778.700	-20.722	0.099
778.800	-44.286	0.099
778.900	-21.385	0.099
779.000	-22.191	0.099
779.100	-31.059	0.099
779.200	-16.160	0.099
779.300	-29.569	0.099
779.400	-23.351	0.100
779.500	-30.328	0.099
779.600	-19.997	0.099
779.700	-35.314	0.099
779.800	-32.995	0.099
779.900	-23.356	0.099
780.000	-44.580	0.099
780.100	-18.732	0.099
780.200	-32.176	0.099
780.300	-17.006	0.099
780.400	3.069	0.099
780.500	-5.533	0.099
780.600	14.396	0.099
780.700	19.873	0.099
780.800	31.752	0.099
780.900	27.790	0.099
781.000	17.408	0.100
781.100	23.144	0.099
781.200	30.426	0.099
781.300	24.297	0.099
781.400	33.979	0.100
781.500	26.321	0.099
781.600	15.636	0.100
781.700	18.572	0.099
781.800	41.434	0.099
781.900	14.073	0.099
782.000	34.541	0.099
782.100	33.493	0.099
782.200	15.696	0.099
782.300	22.932	0.100
782.400	32.321	0.099
782.500	14.084	0.099
782.600	10.706	0.099
782.700	19.462	0.099
782.800	17.500	0.099
782.900	13.770	0.099
783.000	5.486	0.099
783.100	22.614	0.099
783.200	11.565	0.099
783.300	12.147	0.099
783.400	2.032	0.099
783.500	17.505	0.099
783.600	-0.211	0.099
783.700	-8.873	0.099
783.800	14.316	0.099
783.900	14.321	0.099
784.000	7.727	0.099
784.100	3.786	0.099
784.200	14.532	0.099
784.300	7.108	0.099
784.400	18.138	0.099
784.500	-0.477	0.099
784.600	16.752	0.099
784.700	19.926	0.099
784.800	1.331	0.099
784.900	16.581	0.099
785.000	17.538	0.099
785.100	19.909	0.099
785.200	6.849	0.099
785.300	11.840	0.099
785.400	29.586	0.100
785.500	21.853	0.099
785.600	26.774	0.099
785.700	6.972	0.100
785.800	39.019	0.099
785.900	37.276	0.099
786.000	8.493	0.099
786.100	22.329	0.099
786.200	26.357	0.099
786.300	21.440	0.099
786.400	16.034	0.099
786.500	18.030	0.099
786.600	20.375	0.099
786.700	29.474	0.099
786.800	17.007	0.099
786.900	25.183	0.099
787.000	37.276	0.100
787.100	38.483	0.099
787.200	26.069	0.099
787.300	32.111	0.100
787.400	26.298	0.100
787.500	26.093	0.099
787.600	42.175	0.099
787.700	29.106	0.099
787.800	23.806	0.099
787.900	20.501	0.099
788.000	33.749	0.099
788.100	35.799	0.099
788.200	38.632	0.099
788.300	34.821	0.099
788.400	36.702	0.099
788.500	28.435	0.099
788.600	36.776	0.099
788.700	32.824	0.099
788.800	35.920	0.100
788.900	20.605	0.099
789.000	29.302	0.099
789.100	39.679	0.099
789.200	31.799	0.099
789.300	24.138	0.099
789.400	42.572	0.099
789.500	25.882	0.099
789.600	45.681	0.100
789.700	21.702	0.099
789.800	43.402	0.099
789.900	31.288	0.099
790.000	29.321	0.099
790.100	36.343	0.099
790.200	48.623	0.099
790.300	35.807	0.099
790.400	39.838	0.099
790.500	29.794	0.099
790.600	40.085	0.099
790.700	24.367	0.099
790.800	42.679	0.099
790.900	57.280	0.099
791.000	29.911	0.099
791.100	36.600	0.099
791.200	55.852	0.099
791.300	23.353	0.099
791.400	28.526	0.099
791.500	44.028	0.099
791.600	51.210	0.099
791.700	40.344	0.099
791.800	44.506	0.099
791.900	37.806	0.099
792.000	45.950	0.099
792.100	32.090	0.099
792.200	48.079	0.099
792.300	48.646	0.099
792.400	43.214	0.099
792.500	51.714	0.099
792.600	43.045	0.099
792.700	57.744	0.099
792.800	36.923	0.100
792.900	42.474	0.099
793.000	43.826	0.099
793.100	57.020	0.099
793.200	45.764	0.099
793.300	46.024	0.099
793.400	46.482	0.099
793.500	35.757	0.099
793.600	53.879	0.099
793.700	45.661	0.099
793.800	55.628	0.099
793.900	41.705	0.099
794.000	51.698	0.099
794.100	53.063	0.099
794.200	34.886	0.099
794.300	39.279	0.099
794.400	46.143	0.099
794.500	40.349	0.099
794.600	65.882	0.099
794.700	58.299	0.099
794.800	44.172	0.099
794.900	48.183	0.099
795.000	63.631	0.099
795.100	50.970	0.099
795.200	51.016	0.099
795.300	61.975	0.099
795.400	46.819	0.099
795.500	37.993	0.099
795.600	44.519	0.099
795.700	54.522	0.099
795.800	56.754	0.099
795.900	45.729	0.099
796.000	58.763	0.099
796.100	49.437	0.099
796.200	52.372	0.099
796.300	67.865	0.099
796.400	60.153	0.099
796.500	64.229	0.099
796.600	43.596	0.099
796.700	57.334	0.099
796.800	52.702	0.099
796.900	54.527	0.099
797.000	65.543	0.099
797.100	52.980	0.099
797.200	59.711	0.099
797.300	60.746	0.099
797.400	47.151	0.099
797.500	60.555	0.099
797.600	59.946	0.099
797.700	52.201	0.099
797.800	69.170	0.099
797.900	63.551	0.099
798.000	51.561	0.099
798.100	34.072	0.099
798.200	56.863	0.099
798.300	51.251	0.099
798.400	65.041	0.099
798.500	57.003	0.099
798.600	62.255	0.099
798.700	53.947	0.099
798.800	55.419	0.099
798.900	45.045	0.099
799.000	65.506	0.099
799.100	55.934	0.099
799.200	45.845	0.099
799.300	71.444	0.099
799.400	58.648	0.099
799.500	50.747	0.099
799.600	59.571	0.099
799.700	58.426	0.099
799.800	52.372	0.099
799.900	58.253	0.099
800.000	74.408	0.099
