time /s	I /nA	E /V
0.100	-9.388	0.100
0.200	-9.818	0.100
0.300	-18.398	0.100
0.400	-18.598	0.100
0.500	-10.708	0.100
0.600	-24.665	0.100
0.700	-10.685	0.100
0.800	-23.495	0.100
0.900	-18.126	0.100
1.000	-13.478	0.100
1.100	-20.003	0.100
1.200	-20.158	0.100
1.300	-6.088	0.100
1.400	-15.235	0.100
1.500	-26.591	0.100
1.600	-14.915	0.100
1.700	-11.596	0.100
1.800	-28.080	0.100
1.900	-16.428	0.100
2.000	-8.536	0.100
2.100	-12.640	0.100
2.200	-15.061	0.100
2.300	-10.190	0.100
2.400	-44.214	0.100
2.500	-18.215	0.100
2.600	-10.473	0.100
2.700	-20.508	0.100
2.800	-21.097	0.100
2.900	-11.439	0.100
3.000	-5.800	0.100
3.100	-5.965	0.100
3.200	-19.308	0.100
3.300	-25.476	0.100
3.400	-15.450	0.099
3.500	-3.275	0.100
3.600	-17.151	0.100
3.700	-26.001	0.100
3.800	4.812	0.100
3.900	-16.317	0.099
4.000	-39.562	0.100
4.100	-22.728	0.100
4.200	-29.328	0.100
4.300	-3.377	0.100
4.400	-6.308	0.100
4.500	-13.927	0.100
4.600	-31.413	0.100
4.700	-18.955	0.100
4.800	-7.345	0.100
4.900	-16.711	0.100
5.000	-6.237	0.100
5.100	-21.589	0.100
5.200	-15.926	0.100
5.300	-12.206	0.100
5.400	-15.007	0.100
5.500	-38.997	0.100
5.600	-19.621	0.100
5.700	-8.919	0.100
5.800	-19.534	0.100
5.900	-20.973	0.100
6.000	-14.213	0.100
6.100	-2.971	0.100
6.200	-22.333	0.100
6.300	-17.465	0.100
6.400	-25.272	0.100
6.500	-14.167	0.100
6.600	-21.662	0.100
6.700	-30.407	0.100
6.800	-22.303	0.100
6.900	-14.679	0.100
7.000	-26.505	0.100
7.100	-7.723	0.100
7.200	-25.651	0.100
7.300	-13.734	0.100
7.400	-24.482	0.100
7.500	-1.537	0.100
7.600	-11.434	0.100
7.700	-16.947	0.100
7.800	-25.681	0.100
7.900	-25.259	0.100
8.000	-9.997	0.100
8.100	-8.313	0.100
8.200	-23.235	0.100
8.300	-18.561	0.100
8.400	-19.552	0.100
8.500	-22.013	0.100
8.600	-20.858	0.100
8.700	-16.318	0.100
8.800	-15.560	0.100
8.900	-26.944	0.100
9.000	-23.508	0.100
9.100	-9.492	0.100
9.200	-7.438	0.100
9.300	-17.535	0.100
9.400	-17.192	0.100
9.500	-12.710	0.100
9.600	-16.587	0.100
9.700	-25.264	0.100
9.800	-19.394	0.100
9.900	-22.905	0.100
10.000	-0.808	0.100
10.100	-15.924	0.100
10.200	-11.659	0.100
10.300	-28.495	0.100
10.400	-14.898	0.100
10.500	-24.961	0.100
10.600	-4.263	0.100
10.700	-14.087	0.100
10.800	-3.074	0.100
10.900	-21.317	0.100
11.000	-48.219	0.100
11.100	-27.557	0.100
11.200	-8.060	0.100
11.300	-2.314	0.100
11.400	-9.347	0.100
11.500	-12.184	0.100
11.600	-27.216	0.100
11.700	-17.753	0.100
11.800	-27.196	0.100
11.900	-20.052	0.100
12.000	-18.799	0.100
12.100	-6.212	0.100
12.200	-14.670	0.100
12.300	-10.391	0.100
12.400	-24.961	0.100
12.500	-8.202	0.100
12.600	-3.531	0.100
12.700	-13.563	0.100
12.800	-4.161	0.100
12.900	-13.840	0.100
13.000	-30.207	0.100
13.100	-29.784	0.100
13.200	-9.333	0.100
13.300	-25.444	0.100
13.400	-7.987	0.100
13.500	-18.536	0.100
13.600	-39.173	0.100
13.700	-1.663	0.100
13.800	-24.875	0.100
13.900	-17.177	0.100
14.000	-16.724	0.100
14.100	-8.054	0.100
14.200	-7.820	0.100
14.300	-27.841	0.100
14.400	1.300	0.100
14.500	-14.537	0.100
14.600	-16.093	0.100
14.700	-25.797	0.100
14.800	-15.163	0.100
14.900	-21.578	0.100
15.000	-3.270	0.100
15.100	-29.620	0.100
15.200	-27.769	0.100
15.300	-8.457	0.100
15.400	-21.179	0.100
15.500	-11.131	0.100
15.600	-21.703	0.099
15.700	-2.500	0.100
15.800	-14.305	0.100
15.900	-22.641	0.100
16.000	-6.528	0.100
16.100	-17.602	0.100
16.200	-15.851	0.100
16.300	-16.117	0.100
16.400	-10.305	0.100
16.500	-5.507	0.100
16.600	-16.128	0.100
16.700	-27.200	0.100
16.800	-12.579	0.100
16.900	-10.712	0.100
17.000	-25.931	0.100
17.100	-17.691	0.100
17.200	-28.370	0.100
17.300	-25.911	0.100
17.400	-18.210	0.100
17.500	-15.979	0.100
17.600	-11.828	0.100
17.700	-22.873	0.100
17.800	-20.020	0.100
17.900	-21.188	0.100
18.000	-12.757	0.100
18.100	-14.903	0.100
18.200	-21.374	0.100
18.300	-9.790	0.100
18.400	-16.978	0.100
18.500	-7.340	0.100
18.600	-20.302	0.100
18.700	-15.471	0.100
18.800	-19.851	0.100
18.900	-10.598	0.100
19.000	-10.002	0.100
19.100	-22.470	0.100
19.200	-23.648	0.100
19.300	-29.812	0.100
19.400	-5.930	0.100
19.500	-14.354	0.100
19.600	-27.454	0.100
19.700	-16.421	0.100
19.800	-26.388	0.100
19.900	-20.386	0.100
20.000	-22.212	0.100
20.100	-4.087	0.100
20.200	-20.339	0.100
20.300	-11.973	0.100
20.400	-19.203	0.100
20.500	-17.530	0.100
20.600	-10.946	0.100
20.700	-18.025	0.100
20.800	-21.346	0.100
20.900	-42.133	0.100
21.000	-18.931	0.100
21.100	1.340	0.100
21.200	-20.400	0.100
21.300	-23.473	0.100
21.400	-23.314	0.100
21.500	-14.301	0.100
21.600	-18.905	0.100
21.700	-9.105	0.100
21.800	-12.330	0.100
21.900	-27.372	0.100
22.000	-13.501	0.100
22.100	-9.508	0.100
22.200	-15.770	0.100
22.300	-42.958	0.100
22.400	-14.081	0.100
22.500	-15.498	0.100
22.600	-3.276	0.100
22.700	-4.815	0.100
22.800	-25.576	0.100
22.900	-25.730	0.100
23.000	-6.920	0.100
23.100	-4.935	0.100
23.200	-15.169	0.100
23.300	-21.140	0.100
23.400	-17.112	0.100
23.500	4.164	0.100
23.600	-9.191	0.100
23.700	-20.300	0.100
23.800	-12.855	0.100
23.900	-20.450	0.100
24.000	-18.477	0.100
24.100	-24.143	0.100
24.200	-30.198	0.100
24.300	-17.606	0.100
24.400	-16.900	0.100
24.500	-13.270	0.100
24.600	-18.245	0.100
24.700	-5.306	0.100
24.800	-23.618	0.100
24.900	-14.461	0.100
25.000	-15.026	0.100
25.100	-27.849	0.100
25.200	-12.111	0.100
25.300	-13.315	0.100
25.400	-8.328	0.100
25.500	-7.847	0.100
25.600	-21.903	0.100
25.700	-29.321	0.100
25.800	-13.125	0.100
25.900	-10.960	0.100
26.000	-22.808	0.100
26.100	-3.545	0.100
26.200	-28.629	0.099
26.300	-20.012	0.100
26.400	-17.303	0.100
26.500	-15.317	0.100
26.600	-10.560	0.100
26.700	-14.760	0.100
26.800	-10.948	0.100
26.900	-27.896	0.100
27.000	-24.398	0.100
27.100	-20.940	0.100
27.200	-18.035	0.100
27.300	-2.719	0.100
27.400	-22.482	0.100
27.500	-22.387	0.100
27.600	-18.730	0.100
27.700	-33.076	0.100
27.800	-20.542	0.100
27.900	-6.678	0.100
28.000	1.364	0.100
28.100	-1.448	0.100
28.200	-39.732	0.100
28.300	-12.246	0.100
28.400	-12.383	0.100
28.500	-18.410	0.099
28.600	-1.875	0.100
28.700	-5.140	0.100
28.800	-12.372	0.100
28.900	-26.051	0.100
29.000	-18.354	0.100
29.100	-13.564	0.100
29.200	-21.528	0.100
29.300	-10.800	0.100
29.400	-16.403	0.100
29.500	-4.506	0.100
29.600	-5.703	0.100
29.700	18.731	0.100
29.800	-11.213	0.100
29.900	-6.968	0.100
30.000	9.333	0.100
30.100	16.226	0.100
30.200	21.918	0.100
30.300	21.945	0.100
30.400	27.005	0.100
30.500	20.738	0.100
30.600	29.356	0.100
30.700	22.593	0.100
30.800	33.363	0.100
30.900	32.045	0.100
31.000	24.612	0.100
31.100	22.874	0.100
31.200	35.748	0.100
31.300	28.379	0.100
31.400	37.822	0.100
31.500	32.687	0.100
31.600	15.349	0.100
31.700	37.423	0.100
31.800	27.198	0.100
31.900	34.629	0.100
32.000	11.534	0.100
32.100	15.609	0.100
32.200	39.828	0.100
32.300	17.116	0.100
32.400	9.684	0.100
32.500	19.590	0.100
32.600	15.749	0.100
32.700	26.252	0.100
32.800	23.967	0.100
32.900	26.024	0.100
33.000	9.647	0.100
33.100	14.568	0.100
33.200	14.736	0.100
33.300	17.693	0.100
33.400	9.705	0.100
33.500	28.710	0.100
33.600	14.587	0.100
33.700	1.037	0.100
33.800	26.607	0.100
33.900	17.068	0.100
34.000	13.959	0.100
34.100	-7.533	0.100
34.200	8.012	0.100
34.300	8.720	0.100
34.400	42.117	0.100
34.500	15.973	0.100
34.600	26.441	0.100
34.700	18.557	0.100
34.800	10.117	0.100
34.900	3.773	0.100
35.000	-11.885	0.100
35.100	21.443	0.100
35.200	17.158	0.100
35.300	20.146	0.100
35.400	-16.498	0.100
35.500	31.080	0.100
35.600	27.739	0.100
35.700	27.240	0.100
35.800	34.315	0.100
35.900	6.162	0.100
36.000	18.158	0.100
36.100	18.407	0.100
36.200	13.077	0.099
36.300	22.912	0.100
36.400	27.040	0.100
36.500	14.388	0.100
36.600	15.438	0.100
36.700	10.786	0.100
36.800	27.708	0.100
36.900	30.630	0.100
37.000	24.074	0.100
37.100	13.887	0.099
37.200	12.456	0.099
37.300	29.341	0.100
37.400	27.406	0.100
37.500	11.188	0.100
37.600	4.819	0.099
37.700	17.695	0.100
37.800	41.883	0.100
37.900	25.636	0.100
38.000	19.810	0.100
38.100	37.141	0.100
38.200	26.121	0.100
38.300	21.200	0.100
38.400	18.695	0.100
38.500	14.579	0.100
38.600	28.404	0.100
38.700	25.746	0.100
38.800	36.373	0.100
38.900	25.434	0.100
39.000	16.878	0.100
39.100	33.659	0.099
39.200	18.364	0.100
39.300	12.078	0.100
39.400	19.138	0.100
39.500	32.881	0.100
39.600	20.178	0.100
39.700	28.959	0.100
39.800	20.265	0.100
39.900	29.201	0.100
40.000	5.661	0.100
40.100	30.526	0.100
40.200	44.617	0.100
40.300	24.217	0.100
40.400	29.240	0.100
40.500	26.619	0.100
40.600	18.431	0.100
40.700	10.387	0.100
40.800	39.061	0.100
40.900	41.362	0.100
41.000	35.947	0.100
41.100	34.091	0.100
41.200	12.983	0.100
41.300	39.193	0.099
41.400	31.555	0.100
41.500	50.902	0.099
41.600	29.889	0.100
41.700	43.894	0.100
41.800	28.393	0.100
41.900	26.997	0.100
42.000	29.725	0.100
42.100	11.747	0.100
42.200	57.777	0.100
42.300	34.635	0.100
42.400	21.194	0.100
42.500	28.747	0.100
42.600	37.068	0.100
42.700	31.056	0.100
42.800	30.629	0.100
42.900	21.030	0.100
43.000	35.310	0.100
43.100	42.639	0.100
43.200	34.176	0.100
43.300	35.595	0.100
43.400	37.004	0.099
43.500	37.959	0.100
43.600	28.360	0.100
43.700	42.467	0.100
43.800	34.198	0.100
43.900	43.901	0.100
44.000	29.012	0.100
44.100	43.386	0.100
44.200	30.665	0.100
44.300	29.721	0.100
44.400	36.642	0.100
44.500	42.907	0.100
44.600	36.194	0.100
44.700	26.511	0.100
44.800	59.807	0.100
44.900	38.981	0.100
45.000	52.558	0.100
45.100	34.521	0.100
45.200	38.198	0.100
45.300	47.918	0.100
45.400	30.220	0.100
45.500	37.753	0.100
45.600	21.224	0.100
45.700	42.542	0.100
45.800	48.661	0.100
45.900	29.270	0.100
46.000	22.646	0.100
46.100	36.206	0.100
46.200	31.969	0.100
46.300	42.858	0.100
46.400	59.317	0.100
46.500	51.041	0.100
46.600	33.809	0.100
46.700	30.834	0.100
46.800	37.798	0.100
46.900	29.913	0.100
47.000	49.317	0.100
47.100	53.193	0.100
47.200	35.341	0.100
47.300	40.807	0.100
47.400	27.873	0.100
47.500	21.107	0.100
47.600	41.495	0.100
47.700	44.834	0.099
47.800	60.413	0.100
47.900	27.115	0.099
48.000	23.484	0.100
48.100	22.575	0.100
48.200	50.449	0.100
48.300	34.277	0.100
48.400	42.972	0.100
48.500	23.840	0.099
48.600	37.674	0.100
48.700	43.184	0.100
48.800	42.562	0.100
48.900	45.626	0.100
49.000	42.704	0.100
49.100	57.212	0.100
49.200	36.297	0.100
49.300	34.701	0.100
49.400	49.455	0.099
49.500	29.644	0.100
49.600	43.988	0.100
49.700	26.503	0.100
49.800	47.622	0.100
49.900	40.165	0.100
50.000	57.800	0.100
50.100	35.134	0.100
50.200	48.973	0.100
50.300	46.652	0.100
50.400	34.253	0.100
50.500	49.420	0.100
50.600	42.137	0.100
50.700	38.023	0.099
50.800	51.421	0.100
50.900	40.690	0.100
51.000	35.502	0.100
51.100	36.828	0.100
51.200	42.945	0.100
51.300	48.434	0.100
51.400	31.875	0.100
51.500	57.973	0.100
51.600	35.124	0.100
51.700	37.895	0.100
51.800	37.368	0.099
51.900	50.958	0.099
52.000	29.736	0.100
52.100	51.843	0.100
52.200	42.688	0.099
52.300	34.252	0.100
52.400	47.910	0.100
52.500	53.541	0.100
52.600	32.252	0.100
52.700	45.306	0.100
52.800	22.025	0.099
52.900	49.840	0.100
53.000	43.781	0.100
53.100	37.135	0.099
53.200	54.831	0.100
53.300	21.805	0.099
53.400	35.921	0.099
53.500	46.305	0.100
53.600	45.467	0.100
53.700	39.132	0.100
53.800	48.060	0.099
53.900	49.908	0.100
54.000	48.185	0.100
54.100	44.024	0.100
54.200	32.818	0.100
54.300	44.644	0.099
54.400	38.323	0.100
54.500	53.636	0.100
54.600	31.022	0.099
54.700	55.082	0.100
54.800	24.264	0.100
54.900	30.217	0.100
55.000	52.958	0.100
55.100	51.902	0.100
55.200	42.671	0.100
55.300	40.012	0.100
55.400	47.835	0.100
55.500	31.874	0.100
55.600	53.163	0.100
55.700	50.445	0.099
55.800	60.758	0.100
55.900	44.507	0.099
56.000	40.623	0.099
56.100	34.276	0.100
56.200	40.955	0.100
56.300	59.897	0.100
56.400	47.051	0.099
56.500	55.155	0.100
56.600	28.615	0.100
56.700	45.215	0.099
56.800	45.820	0.100
56.900	30.449	0.100
57.000	48.890	0.100
57.100	50.848	0.100
57.200	45.815	0.100
57.300	25.021	0.099
57.400	52.287	0.100
57.500	46.468	0.100
57.600	31.054	0.100
57.700	53.625	0.099
57.800	70.886	0.100
57.900	30.518	0.099
58.000	34.934	0.099
58.100	46.282	0.100
58.200	40.129	0.100
58.300	45.696	0.100
58.400	40.812	0.100
58.500	40.897	0.099
58.600	39.475	0.099
58.700	40.903	0.100
58.800	56.542	0.100
58.900	45.361	0.100
59.000	47.058	0.100
59.100	43.990	0.100
59.200	42.310	0.100
59.300	56.109	0.100
59.400	40.823	0.099
59.500	40.944	0.100
59.600	47.438	0.100
59.700	53.922	0.100
59.800	51.175	0.100
59.900	54.428	0.100
60.000	47.379	0.100
60.100	42.248	0.100
60.200	30.573	0.100
60.300	57.944	0.100
60.400	40.044	0.100
60.500	49.259	0.100
60.600	43.781	0.100
60.700	35.993	0.100
60.800	45.564	0.100
60.900	38.315	0.100
61.000	46.418	0.100
61.100	47.540	0.100
61.200	49.189	0.099
61.300	51.939	0.100
61.400	35.781	0.100
61.500	67.074	0.100
61.600	59.853	0.099
61.700	29.765	0.100
61.800	51.780	0.100
61.900	45.812	0.100
62.000	30.495	0.100
62.100	37.066	0.100
62.200	61.038	0.100
62.300	28.256	0.099
62.400	45.855	0.100
62.500	54.961	0.100
62.600	54.426	0.100
62.700	49.871	0.100
62.800	36.024	0.100
62.900	48.205	0.100
63.000	42.572	0.100
63.100	66.928	0.100
63.200	60.781	0.100
63.300	48.209	0.100
63.400	46.335	0.100
63.500	39.413	0.100
63.600	47.242	0.100
63.700	49.539	0.100
63.800	49.935	0.100
63.900	48.380	0.100
64.000	59.263	0.100
64.100	51.076	0.100
64.200	47.965	0.100
64.300	27.182	0.100
64.400	69.894	0.100
64.500	63.708	0.100
64.600	28.927	0.100
64.700	57.165	0.100
64.800	44.315	0.100
64.900	57.452	0.100
65.000	37.171	0.100
65.100	43.410	0.100
65.200	47.767	0.099
65.300	62.931	0.100
65.400	58.630	0.100
65.500	46.299	0.100
65.600	71.527	0.100
65.700	52.957	0.100
65.800	46.390	0.100
65.900	37.145	0.100
66.000	41.817	0.100
66.100	40.451	0.100
66.200	51.087	0.100
66.300	54.684	0.100
66.400	43.479	0.100
66.500	48.285	0.100
66.600	37.525	0.100
66.700	52.342	0.100
66.800	54.394	0.100
66.900	59.171	0.100
67.000	53.706	0.100
67.100	42.644	0.100
67.200	44.507	0.100
67.300	48.035	0.100
67.400	60.837	0.100
67.500	55.151	0.099
67.600	63.939	0.100
67.700	33.610	0.100
67.800	57.503	0.100
67.900	69.298	0.100
68.000	41.191	0.100
68.100	51.631	0.100
68.200	46.417	0.100
68.300	54.358	0.100
68.400	52.862	0.100
68.500	41.337	0.100
68.600	36.329	0.100
68.700	67.565	0.100
68.800	54.208	0.100
68.900	52.689	0.100
69.000	65.529	0.100
69.100	40.435	0.100
69.200	50.700	0.100
69.300	57.780	0.100
69.400	45.551	0.100
69.500	60.118	0.100
69.600	70.670	0.100
69.700	49.184	0.100
69.800	48.962	0.100
69.900	49.908	0.100
70.000	55.542	0.100
70.100	54.350	0.100
70.200	52.351	0.100
70.300	63.344	0.100
70.400	52.824	0.100
70.500	48.523	0.100
70.600	44.490	0.100
70.700	54.103	0.100
70.800	53.309	0.100
70.900	57.403	0.100
71.000	58.342	0.100
71.100	49.414	0.100
71.200	56.452	0.100
71.300	52.347	0.100
71.400	58.873	0.100
71.500	51.155	0.100
71.600	84.093	0.100
71.700	58.874	0.100
71.800	52.444	0.100
71.900	46.380	0.100
72.000	52.691	0.100
72.100	51.076	0.100
72.200	55.402	0.100
72.300	55.096	0.100
72.400	63.615	0.100
72.500	66.330	0.100
72.600	50.801	0.100
72.700	52.046	0.100
72.800	45.312	0.100
72.900	45.544	0.100
73.000	62.614	0.100
73.100	45.651	0.100
73.200	68.643	0.100
73.300	69.830	0.100
73.400	48.517	0.100
73.500	66.344	0.100
73.600	46.655	0.100
73.700	70.627	0.100
73.800	48.201	0.100
73.900	55.484	0.099
74.000	58.244	0.100
74.100	50.734	0.100
74.200	43.792	0.100
74.300	64.986	0.100
74.400	68.279	0.099
74.500	48.660	0.100
74.600	76.077	0.100
74.700	58.978	0.100
74.800	51.727	0.099
74.900	63.249	0.100
75.000	57.007	0.100
75.100	57.498	0.100
75.200	64.270	0.100
75.300	40.566	0.100
75.400	58.144	0.100
75.500	53.588	0.100
75.600	63.164	0.100
75.700	53.387	0.100
75.800	58.460	0.100
75.900	71.532	0.100
76.000	42.635	0.100
76.100	65.888	0.100
76.200	65.431	0.100
76.300	53.285	0.100
76.400	53.708	0.100
76.500	52.996	0.100
76.600	55.288	0.100
76.700	58.708	0.100
76.800	67.808	0.100
76.900	61.497	0.100
77.000	52.214	0.100
77.100	62.801	0.100
77.200	46.618	0.100
77.300	61.072	0.100
77.400	68.453	0.100
77.500	70.672	0.099
77.600	54.758	0.099
77.700	77.510	0.100
77.800	65.983	0.100
77.900	56.572	0.100
78.000	66.824	0.100
78.100	64.781	0.100
78.200	62.655	0.100
78.300	49.939	0.100
78.400	78.254	0.100
78.500	74.240	0.099
78.600	63.670	0.099
78.700	66.940	0.100
78.800	57.041	0.100
78.900	59.848	0.100
79.000	60.985	0.100
79.100	83.865	0.100
79.200	71.303	0.100
79.300	36.766	0.100
79.400	63.891	0.100
79.500	51.763	0.100
79.600	70.080	0.099
79.700	53.937	0.100
79.800	68.671	0.100
79.900	63.814	0.100
80.000	61.906	0.100
80.100	64.646	0.100
80.200	52.826	0.099
80.300	43.193	0.100
80.400	76.306	0.100
80.500	72.357	0.100
80.600	62.228	0.099
80.700	71.494	0.099
80.800	43.479	0.100
80.900	66.784	0.100
81.000	60.944	0.100
81.100	73.515	0.100
81.200	74.371	0.100
81.300	40.348	0.100
81.400	75.476	0.100
81.500	46.646	0.100
81.600	84.283	0.100
81.700	58.078	0.100
81.800	66.172	0.100
81.900	54.361	0.100
82.000	71.736	0.100
82.100	61.466	0.100
82.200	65.210	0.100
82.300	68.981	0.100
82.400	76.159	0.100
82.500	64.080	0.100
82.600	59.662	0.100
82.700	66.605	0.099
82.800	62.556	0.100
82.900	47.553	0.100
83.000	52.066	0.100
83.100	71.253	0.100
83.200	78.468	0.100
83.300	77.224	0.100
83.400	62.231	0.100
83.500	63.209	0.100
83.600	51.505	0.099
83.700	65.093	0.100
83.800	66.442	0.100
83.900	78.349	0.100
84.000	57.233	0.100
84.100	66.079	0.100
84.200	57.442	0.100
84.300	46.278	0.100
84.400	57.749	0.100
84.500	85.080	0.100
84.600	61.094	0.100
84.700	62.916	0.100
84.800	60.121	0.100
84.900	61.199	0.100
85.000	88.507	0.100
85.100	62.525	0.100
85.200	65.502	0.100
85.300	65.540	0.100
85.400	60.179	0.100
85.500	77.671	0.100
85.600	57.660	0.100
85.700	54.573	0.100
85.800	50.153	0.100
85.900	67.576	0.100
86.000	68.633	0.100
86.100	69.294	0.100
86.200	65.362	0.100
86.300	67.588	0.100
86.400	53.580	0.100
86.500	76.061	0.100
86.600	88.966	0.099
86.700	65.680	0.100
86.800	62.718	0.099
86.900	73.298	0.100
87.000	65.720	0.100
87.100	59.366	0.100
87.200	57.253	0.100
87.300	67.054	0.099
87.400	72.818	0.099
87.500	70.765	0.099
87.600	65.293	0.099
87.700	64.204	0.100
87.800	69.299	0.100
87.900	66.945	0.100
88.000	57.815	0.100
88.100	68.048	0.100
88.200	64.993	0.100
88.300	65.790	0.100
88.400	73.640	0.100
88.500	50.466	0.100
88.600	57.497	0.099
88.700	81.207	0.099
88.800	63.148	0.100
88.900	53.851	0.099
89.000	71.605	0.100
89.100	82.272	0.099
89.200	65.507	0.100
89.300	78.555	0.099
89.400	69.350	0.099
89.500	84.578	0.100
89.600	72.996	0.100
89.700	65.910	0.100
89.800	63.365	0.100
89.900	48.632	0.100
90.000	47.860	0.100
90.100	34.341	0.100
90.200	38.587	0.100
90.300	26.735	0.100
90.400	30.095	0.100
90.500	20.747	0.099
90.600	11.454	0.100
90.700	-7.970	0.100
90.800	-2.376	0.100
90.900	-22.628	0.100
91.000	-21.717	0.100
91.100	12.387	0.100
91.200	-11.548	0.100
91.300	-3.557	0.100
91.400	-24.404	0.100
91.500	-28.742	0.100
91.600	-21.635	0.100
91.700	-35.366	0.100
91.800	-45.879	0.100
91.900	-35.915	0.100
92.000	-43.452	0.100
92.100	-28.220	0.100
92.200	-48.755	0.099
92.300	-41.519	0.100
92.400	-46.330	0.100
92.500	-28.135	0.100
92.600	-43.962	0.100
92.700	-47.867	0.100
92.800	-51.017	0.100
92.900	-45.525	0.100
93.000	-49.023	0.099
93.100	-28.154	0.100
93.200	-35.874	0.100
93.300	-39.680	0.100
93.400	-44.155	0.100
93.500	-44.853	0.099
93.600	-43.570	0.100
93.700	-44.287	0.100
93.800	-41.938	0.100
93.900	-26.053	0.100
94.000	-54.247	0.100
94.100	-38.758	0.100
94.200	-40.152	0.100
94.300	-28.517	0.100
94.400	-30.576	0.099
94.500	-30.119	0.100
94.600	-34.368	0.100
94.700	-18.170	0.100
94.800	-41.593	0.099
94.900	-34.622	0.100
95.000	-27.529	0.100
95.100	-31.870	0.100
95.200	-33.564	0.100
95.300	-29.722	0.100
95.400	-30.604	0.100
95.500	-21.969	0.100
95.600	-22.002	0.100
95.700	-17.404	0.100
95.800	-22.403	0.100
95.900	-13.017	0.100
96.000	-36.166	0.100
96.100	-37.263	0.100
96.200	-24.652	0.100
96.300	-25.488	0.100
96.400	-32.972	0.100
96.500	-34.527	0.100
96.600	-23.775	0.100
96.700	-33.821	0.100
96.800	-18.866	0.100
96.900	-38.626	0.100
97.000	-23.819	0.100
97.100	-15.089	0.100
97.200	-13.972	0.100
97.300	-27.513	0.100
97.400	-42.667	0.100
97.500	-20.684	0.099
97.600	-20.038	0.100
97.700	-15.146	0.100
97.800	-18.858	0.100
97.900	-15.940	0.100
98.000	-23.703	0.099
98.100	-23.975	0.100
98.200	-24.439	0.099
98.300	-12.636	0.099
98.400	-17.371	0.100
98.500	-44.706	0.099
98.600	-3.902	0.100
98.700	-10.450	0.099
98.800	-20.168	0.100
98.900	-16.147	0.100
99.000	-26.299	0.100
99.100	-27.722	0.100
99.200	-27.209	0.100
99.300	-3.594	0.100
99.400	-45.451	0.100
99.500	-14.008	0.100
99.600	-11.416	0.100
99.700	-28.644	0.099
99.800	-23.773	0.100
99.900	-8.545	0.100
100.000	-27.304	0.100
100.100	-20.730	0.100
100.200	-13.688	0.100
100.300	-15.925	0.100
100.400	-28.109	0.100
100.500	-27.592	0.100
100.600	-24.782	0.100
100.700	-10.722	0.100
100.800	-44.121	0.099
100.900	-35.126	0.100
101.000	-25.311	0.099
101.100	-19.636	0.100
101.200	-18.786	0.100
101.300	-5.737	0.100
101.400	-13.184	0.100
101.500	-28.976	0.100
101.600	-43.695	0.100
101.700	-24.323	0.100
101.800	-20.565	0.100
101.900	-46.784	0.100
102.000	-18.395	0.100
102.100	-19.195	0.100
102.200	-20.400	0.100
102.300	-21.481	0.100
102.400	-14.107	0.100
102.500	-29.179	0.100
102.600	-30.279	0.100
102.700	-27.819	0.100
102.800	-18.638	0.100
102.900	-21.416	0.100
103.000	-16.093	0.100
103.100	-36.521	0.100
103.200	-20.600	0.100
103.300	-16.066	0.100
103.400	-30.539	0.100
103.500	-26.249	0.100
103.600	-7.719	0.100
103.700	-12.528	0.100
103.800	-22.606	0.100
103.900	-41.565	0.100
104.000	-21.554	0.100
104.100	-24.644	0.100
104.200	-13.243	0.100
104.300	-21.438	0.100
104.400	-36.602	0.100
104.500	-19.320	0.100
104.600	-30.178	0.100
104.700	-13.306	0.100
104.800	-24.954	0.100
104.900	-33.403	0.100
105.000	-27.651	0.100
105.100	-16.172	0.100
105.200	-15.720	0.100
105.300	-37.163	0.100
105.400	-20.235	0.100
105.500	-14.075	0.100
105.600	-24.952	0.100
105.700	-31.560	0.100
105.800	-21.292	0.100
105.900	-10.482	0.100
106.000	-31.993	0.100
106.100	-33.467	0.100
106.200	-4.766	0.100
106.300	-12.182	0.100
106.400	-50.103	0.100
106.500	-34.082	0.099
106.600	-27.333	0.100
106.700	-23.139	0.100
106.800	-21.316	0.100
106.900	-21.450	0.100
107.000	-5.560	0.100
107.100	-23.607	0.100
107.200	-21.475	0.100
107.300	-44.581	0.100
107.400	-33.791	0.100
107.500	-25.035	0.099
107.600	-18.962	0.100
107.700	-34.912	0.100
107.800	-12.090	0.100
107.900	-28.373	0.100
108.000	-23.584	0.100
108.100	-13.117	0.100
108.200	-32.617	0.100
108.300	-33.552	0.100
108.400	-18.083	0.100
108.500	-23.402	0.100
108.600	-12.854	0.100
108.700	-25.542	0.099
108.800	-17.853	0.100
108.900	-36.697	0.100
109.000	-25.422	0.100
109.100	-33.638	0.100
109.200	-24.635	0.100
109.300	9.029	0.100
109.400	-31.525	0.100
109.500	-22.436	0.100
109.600	-19.773	0.100
109.700	-16.783	0.099
109.800	-14.497	0.100
109.900	-30.317	0.100
110.000	-22.994	0.100
110.100	-16.162	0.100
110.200	-29.690	0.100
110.300	-25.185	0.100
110.400	-25.378	0.099
110.500	-20.880	0.100
110.600	-25.156	0.099
110.700	-27.344	0.100
110.800	-40.277	0.099
110.900	-26.621	0.099
111.000	-30.664	0.100
111.100	-27.711	0.100
111.200	-31.673	0.100
111.300	-14.068	0.099
111.400	-24.435	0.099
111.500	-26.135	0.100
111.600	-13.616	0.100
111.700	-24.424	0.099
111.800	-28.747	0.100
111.900	-20.776	0.100
112.000	-16.420	0.100
112.100	-27.477	0.100
112.200	-17.842	0.100
112.300	-7.558	0.100
112.400	-16.103	0.100
112.500	-27.075	0.099
112.600	-28.880	0.099
112.700	-18.896	0.099
112.800	-41.910	0.100
112.900	-26.157	0.100
113.000	-17.992	0.100
113.100	-40.250	0.100
113.200	-19.664	0.100
113.300	-19.358	0.100
113.400	-26.686	0.100
113.500	-47.187	0.100
113.600	-11.946	0.100
113.700	-19.924	0.099
113.800	-36.991	0.099
113.900	-26.144	0.100
114.000	-26.088	0.099
114.100	-23.435	0.100
114.200	-9.488	0.099
114.300	-14.739	0.100
114.400	-12.195	0.100
114.500	-25.378	0.100
114.600	-22.188	0.100
114.700	-16.138	0.100
114.800	-17.262	0.100
114.900	-27.540	0.100
115.000	-24.426	0.100
115.100	-19.177	0.100
115.200	-39.686	0.100
115.300	-12.352	0.100
115.400	-30.893	0.100
115.500	-34.383	0.100
115.600	-25.385	0.100
115.700	-27.565	0.100
115.800	-21.385	0.100
115.900	-31.171	0.100
116.000	-29.832	0.100
116.100	-22.095	0.100
116.200	-18.382	0.100
116.300	-20.439	0.100
116.400	-27.414	0.100
116.500	-26.054	0.100
116.600	-24.088	0.100
116.700	8.321	0.100
116.800	-26.116	0.100
116.900	-8.785	0.100
117.000	-36.066	0.100
117.100	-14.346	0.100
117.200	-18.854	0.100
117.300	-26.460	0.100
117.400	-30.700	0.099
117.500	-19.119	0.100
117.600	-22.567	0.100
117.700	-54.817	0.100
117.800	-5.934	0.100
117.900	-19.184	0.100
118.000	-42.749	0.100
118.100	-17.429	0.100
118.200	-27.531	0.100
118.300	-20.479	0.100
118.400	-25.450	0.100
118.500	-37.937	0.100
118.600	-27.107	0.100
118.700	-19.936	0.100
118.800	-15.748	0.099
118.900	-23.151	0.100
119.000	-26.943	0.100
119.100	-11.319	0.100
119.200	-35.252	0.100
119.300	-17.166	0.100
119.400	-36.811	0.100
119.500	-16.950	0.100
119.600	-22.104	0.100
119.700	-35.169	0.100
119.800	-18.916	0.100
119.900	-18.399	0.100
120.000	-25.174	0.100
120.100	-12.164	0.100
120.200	-27.512	0.099
120.300	-27.356	0.100
120.400	-18.563	0.099
120.500	-25.952	0.100
120.600	-25.262	0.100
120.700	-35.506	0.100
120.800	-2.657	0.100
120.900	-28.487	0.100
121.000	-11.783	0.100
121.100	-27.991	0.100
121.200	-21.905	0.100
121.300	-24.910	0.100
121.400	-27.347	0.100
121.500	-36.777	0.100
121.600	-20.019	0.100
121.700	-21.133	0.100
121.800	-22.446	0.100
121.900	-35.331	0.099
122.000	-23.562	0.100
122.100	-32.033	0.100
122.200	-13.424	0.100
122.300	-23.852	0.100
122.400	-29.056	0.100
122.500	-19.821	0.100
122.600	-21.474	0.100
122.700	-22.111	0.100
122.800	-13.625	0.100
122.900	-29.448	0.100
123.000	-23.796	0.100
123.100	-26.909	0.100
123.200	-24.898	0.100
123.300	-20.605	0.100
123.400	-9.630	0.100
123.500	-26.295	0.100
123.600	-16.998	0.100
123.700	-24.105	0.100
123.800	-39.280	0.099
123.900	-22.855	0.100
124.000	-30.353	0.100
124.100	-24.797	0.100
124.200	-23.227	0.100
124.300	-28.483	0.099
124.400	-28.856	0.100
124.500	-18.340	0.100
124.600	-21.825	0.100
124.700	-20.712	0.100
124.800	-30.363	0.100
124.900	-20.797	0.100
125.000	-19.490	0.100
125.100	-17.732	0.100
125.200	-33.433	0.099
125.300	-43.426	0.100
125.400	-32.595	0.100
125.500	-36.092	0.099
125.600	-32.414	0.100
125.700	-27.686	0.100
125.800	-24.697	0.100
125.900	2.430	0.100
126.000	-23.636	0.100
126.100	-39.881	0.099
126.200	-30.310	0.100
126.300	-28.139	0.100
126.400	-24.711	0.100
126.500	-26.605	0.100
126.600	-20.078	0.100
126.700	-16.076	0.100
126.800	-32.351	0.100
126.900	-26.368	0.100
127.000	-25.125	0.100
127.100	-6.376	0.100
127.200	-25.559	0.100
127.300	-16.635	0.100
127.400	-32.661	0.100
127.500	-32.433	0.100
127.600	-15.520	0.100
127.700	-26.171	0.100
127.800	-10.355	0.100
127.900	-16.447	0.100
128.000	-34.619	0.100
128.100	-26.116	0.100
128.200	-12.351	0.100
128.300	-47.346	0.100
128.400	-16.277	0.100
128.500	-24.825	0.100
128.600	-22.784	0.100
128.700	-23.457	0.100
128.800	-4.642	0.100
128.900	-31.332	0.100
129.000	-26.371	0.100
129.100	-29.415	0.099
129.200	-29.956	0.100
129.300	-5.570	0.100
129.400	-27.218	0.100
129.500	-20.514	0.100
129.600	-20.330	0.100
129.700	-29.097	0.100
129.800	-40.923	0.100
129.900	-29.153	0.100
130.000	-29.025	0.100
130.100	-21.466	0.100
130.200	-14.564	0.100
130.300	-21.437	0.100
130.400	-23.738	0.100
130.500	-20.557	0.100
130.600	-24.397	0.100
130.700	-11.220	0.100
130.800	-20.994	0.100
130.900	-12.627	0.100
131.000	-27.304	0.100
131.100	-21.439	0.099
131.200	-26.216	0.100
131.300	-24.223	0.100
131.400	-32.429	0.100
131.500	-26.369	0.100
131.600	-10.553	0.100
131.700	-39.169	0.100
131.800	-25.206	0.100
131.900	-29.024	0.100
132.000	-5.032	0.100
132.100	-28.109	0.100
132.200	-38.691	0.100
132.300	-32.778	0.100
132.400	-13.379	0.100
132.500	-21.264	0.100
132.600	-38.676	0.100
132.700	-25.091	0.099
132.800	-22.528	0.100
132.900	-18.976	0.100
133.000	-23.168	0.100
133.100	-13.013	0.100
133.200	-25.511	0.100
133.300	-13.624	0.100
133.400	-28.470	0.100
133.500	-34.582	0.100
133.600	-31.288	0.100
133.700	-12.985	0.100
133.800	-26.311	0.100
133.900	-43.135	0.099
134.000	-17.595	0.100
134.100	-17.824	0.100
134.200	-35.110	0.100
134.300	-20.529	0.100
134.400	-38.333	0.100
134.500	-21.932	0.099
134.600	-14.459	0.100
134.700	-17.759	0.100
134.800	-16.209	0.100
134.900	-23.974	0.100
135.000	-33.779	0.100
135.100	-20.742	0.100
135.200	-22.179	0.100
135.300	-21.407	0.100
135.400	-28.918	0.100
135.500	-38.687	0.100
135.600	-21.052	0.100
135.700	-27.477	0.100
135.800	-31.455	0.100
135.900	-12.036	0.100
136.000	-26.283	0.100
136.100	-15.819	0.100
136.200	-29.003	0.099
136.300	-9.558	0.100
136.400	-41.520	0.099
136.500	-23.122	0.100
136.600	-15.670	0.100
136.700	-9.917	0.100
136.800	-31.013	0.100
136.900	-28.696	0.099
137.000	-9.826	0.100
137.100	-28.195	0.100
137.200	-28.825	0.099
137.300	-18.105	0.100
137.400	-27.099	0.099
137.500	-21.637	0.100
137.600	-25.015	0.100
137.700	-11.379	0.100
137.800	-24.926	0.099
137.900	-28.793	0.099
138.000	-26.640	0.100
138.100	-24.368	0.099
138.200	-35.214	0.100
138.300	-23.847	0.100
138.400	-23.663	0.100
138.500	-24.143	0.100
138.600	-7.646	0.100
138.700	-21.865	0.100
138.800	-28.927	0.100
138.900	-25.015	0.100
139.000	-29.439	0.099
139.100	-24.338	0.099
139.200	-25.034	0.099
139.300	-0.865	0.100
139.400	-13.851	0.099
139.500	-22.437	0.100
139.600	-21.890	0.099
139.700	-33.230	0.099
139.800	-34.102	0.099
139.900	-24.663	0.099
140.000	-20.572	0.099
140.100	-26.201	0.099
140.200	-32.763	0.100
140.300	-16.824	0.100
140.400	-24.526	0.100
140.500	-24.931	0.099
140.600	-21.255	0.099
140.700	-28.550	0.099
140.800	-25.595	0.100
140.900	-13.605	0.099
141.000	-32.055	0.100
141.100	-31.515	0.099
141.200	-12.002	0.100
141.300	-33.445	0.099
141.400	-27.636	0.100
141.500	-8.377	0.100
141.600	-17.923	0.100
141.700	-28.821	0.099
141.800	-25.701	0.099
141.900	-30.452	0.100
142.000	-18.784	0.100
142.100	-29.132	0.100
142.200	-20.360	0.100
142.300	-21.923	0.099
142.400	-29.622	0.100
142.500	-28.031	0.100
142.600	-22.441	0.099
142.700	-25.854	0.100
142.800	-22.794	0.100
142.900	-13.880	0.100
143.000	-23.316	0.099
143.100	-12.471	0.100
143.200	-31.677	0.100
143.300	-21.547	0.100
143.400	-36.791	0.099
143.500	-27.521	0.100
143.600	0.302	0.100
143.700	-23.444	0.100
143.800	-13.142	0.100
143.900	-25.489	0.100
144.000	-19.002	0.099
144.100	-32.532	0.100
144.200	-26.558	0.100
144.300	-24.422	0.100
144.400	-20.196	0.099
144.500	-14.075	0.100
144.600	-27.319	0.100
144.700	-23.919	0.100
144.800	-28.896	0.100
144.900	-14.085	0.100
145.000	-22.012	0.099
145.100	-22.982	0.100
145.200	-19.770	0.100
145.300	-32.996	0.100
145.400	0.579	0.099
145.500	-23.318	0.100
145.600	-10.445	0.100
145.700	-28.264	0.100
145.800	-28.220	0.099
145.900	-10.727	0.100
146.000	-12.131	0.100
146.100	-40.572	0.099
146.200	-9.494	0.100
146.300	-28.974	0.100
146.400	-24.128	0.100
146.500	-3.761	0.100
146.600	-19.718	0.100
146.700	-34.606	0.099
146.800	-25.649	0.099
146.900	-5.458	0.100
147.000	-4.310	0.100
147.100	-25.217	0.100
147.200	-18.216	0.100
147.300	-14.572	0.100
147.400	-47.836	0.100
147.500	-37.569	0.099
147.600	-16.525	0.100
147.700	-22.255	0.100
147.800	-4.036	0.100
147.900	-4.546	0.100
148.000	-18.184	0.100
148.100	-46.187	0.099
148.200	-22.119	0.100
148.300	-24.518	0.100
148.400	-15.041	0.100
148.500	-24.328	0.099
148.600	-32.308	0.099
148.700	-17.422	0.100
148.800	-30.685	0.099
148.900	-25.810	0.100
149.000	-17.027	0.100
149.100	-14.497	0.099
149.200	-10.967	0.100
149.300	-26.071	0.100
149.400	-19.118	0.099
149.500	-23.247	0.099
149.600	-19.648	0.099
149.700	-20.024	0.100
149.800	-27.990	0.100
149.900	-15.777	0.100
150.000	-26.401	0.099
150.100	-19.167	0.099
150.200	-38.517	0.100
150.300	-32.038	0.100
150.400	-11.494	0.100
150.500	-16.648	0.100
150.600	-13.174	0.100
150.700	-30.725	0.099
150.800	-32.123	0.100
150.900	-17.038	0.099
151.000	-39.715	0.100
151.100	1.465	0.100
151.200	-10.475	0.100
151.300	-20.603	0.100
151.400	-15.668	0.100
151.500	-15.983	0.100
151.600	-26.908	0.099
151.700	-28.319	0.100
151.800	-27.432	0.100
151.900	-31.727	0.100
152.000	-26.398	0.099
152.100	-9.777	0.100
152.200	-26.151	0.100
152.300	-18.349	0.099
152.400	-29.274	0.100
152.500	-29.823	0.100
152.600	-14.333	0.100
152.700	-19.622	0.100
152.800	-17.068	0.100
152.900	-10.099	0.100
153.000	-17.133	0.100
153.100	-28.463	0.100
153.200	-34.597	0.100
153.300	-20.443	0.099
153.400	-6.022	0.100
153.500	-21.600	0.100
153.600	-23.455	0.100
153.700	-32.998	0.100
153.800	-30.817	0.099
153.900	-20.133	0.100
154.000	-34.774	0.100
154.100	-19.946	0.100
154.200	-10.923	0.100
154.300	-23.126	0.100
154.400	-5.627	0.100
154.500	-33.288	0.099
154.600	-20.957	0.099
154.700	-26.229	0.100
154.800	-24.126	0.100
154.900	-8.690	0.100
155.000	-22.615	0.100
155.100	-35.372	0.099
155.200	-36.786	0.100
155.300	-8.231	0.100
155.400	-15.610	0.100
155.500	-11.884	0.100
155.600	-23.706	0.100
155.700	-28.860	0.099
155.800	-12.408	0.100
155.900	-20.508	0.099
156.000	-19.655	0.099
156.100	-11.811	0.099
156.200	-25.658	0.099
156.300	-27.289	0.100
156.400	-15.309	0.100
156.500	-13.191	0.100
156.600	-23.902	0.100
156.700	-31.842	0.100
156.800	-24.165	0.100
156.900	-21.206	0.099
157.000	-20.400	0.100
157.100	-33.720	0.100
157.200	-32.533	0.099
157.300	-13.788	0.099
157.400	-23.453	0.100
157.500	-20.855	0.100
157.600	-8.298	0.100
157.700	-19.748	0.100
157.800	-29.085	0.100
157.900	-13.508	0.100
158.000	-12.638	0.100
158.100	-29.131	0.100
158.200	-26.466	0.099
158.300	-14.867	0.100
158.400	-26.348	0.100
158.500	-30.656	0.100
158.600	-19.729	0.100
158.700	-17.240	0.099
158.800	-35.424	0.099
158.900	-24.500	0.100
159.000	-15.240	0.100
159.100	-4.802	0.100
159.200	-34.821	0.100
159.300	-27.148	0.100
159.400	-2.669	0.100
159.500	-3.482	0.100
159.600	-20.544	0.100
159.700	-11.558	0.100
159.800	-18.480	0.100
159.900	-20.859	0.100
160.000	-15.250	0.100
160.100	-32.641	0.100
160.200	-27.022	0.100
160.300	-29.621	0.100
160.400	-9.419	0.100
160.500	-27.642	0.100
160.600	-23.275	0.100
160.700	-18.707	0.100
160.800	-39.629	0.100
160.900	-13.220	0.100
161.000	-20.302	0.100
161.100	-15.012	0.100
161.200	-21.487	0.100
161.300	-21.423	0.100
161.400	-13.370	0.100
161.500	-12.972	0.100
161.600	-32.058	0.100
161.700	-37.759	0.100
161.800	-35.016	0.100
161.900	-13.654	0.100
162.000	-24.473	0.100
162.100	-25.858	0.100
162.200	-24.342	0.100
162.300	-27.448	0.099
162.400	-15.906	0.100
162.500	-28.408	0.100
162.600	-37.776	0.099
162.700	-12.345	0.100
162.800	-19.813	0.100
162.900	-20.086	0.100
163.000	-22.356	0.100
163.100	-15.612	0.100
163.200	-13.006	0.100
163.300	-21.151	0.100
163.400	-34.738	0.100
163.500	-25.951	0.100
163.600	-14.895	0.100
163.700	-26.501	0.100
163.800	-24.063	0.100
163.900	-10.371	0.099
164.000	-21.185	0.100
164.100	-21.144	0.100
164.200	2.369	0.100
164.300	-24.054	0.100
164.400	-26.214	0.100
164.500	-34.182	0.100
164.600	-21.930	0.100
164.700	-18.315	0.100
164.800	-21.992	0.100
164.900	-15.743	0.100
165.000	-15.688	0.100
165.100	-15.324	0.100
165.200	-17.166	0.100
165.300	-6.233	0.100
165.400	-25.903	0.100
165.500	-15.822	0.100
165.600	-31.441	0.100
165.700	-23.830	0.100
165.800	-15.158	0.100
165.900	-19.658	0.100
166.000	-27.009	0.100
166.100	-16.826	0.100
166.200	-22.872	0.100
166.300	-6.693	0.100
166.400	-23.390	0.100
166.500	-14.753	0.100
166.600	-30.018	0.100
166.700	-33.347	0.100
166.800	-17.983	0.100
166.900	-15.390	0.100
167.000	-2.987	0.100
167.100	-26.638	0.100
167.200	-21.319	0.100
167.300	-23.786	0.100
167.400	-24.551	0.100
167.500	-21.538	0.100
167.600	-25.499	0.099
167.700	-18.954	0.100
167.800	-11.970	0.099
167.900	-26.919	0.100
168.000	-11.229	0.099
168.100	-32.011	0.100
168.200	-16.111	0.099
168.300	-25.214	0.100
168.400	-25.363	0.100
168.500	-28.350	0.099
168.600	-6.343	0.100
168.700	-15.791	0.100
168.800	-17.530	0.100
168.900	-27.030	0.100
169.000	-23.144	0.100
169.100	-38.128	0.099
169.200	-33.429	0.100
169.300	-15.442	0.099
169.400	-15.961	0.100
169.500	-25.285	0.099
169.600	-8.242	0.100
169.700	-23.575	0.100
169.800	-8.273	0.100
169.900	-25.340	0.100
170.000	-40.291	0.100
170.100	-9.007	0.100
170.200	-26.612	0.100
170.300	-18.177	0.100
170.400	-24.487	0.100
170.500	-17.048	0.100
170.600	-27.315	0.100
170.700	-17.584	0.100
170.800	-0.904	0.100
170.900	-16.529	0.100
171.000	-22.021	0.100
171.100	-21.999	0.100
171.200	-5.439	0.100
171.300	-16.639	0.100
171.400	-33.739	0.100
171.500	-19.982	0.100
171.600	-10.769	0.100
171.700	-17.368	0.100
171.800	-11.552	0.100
171.900	-12.120	0.100
172.000	-32.922	0.100
172.100	-14.944	0.100
172.200	-18.449	0.099
172.300	-21.662	0.100
172.400	-18.917	0.100
172.500	-18.865	0.100
172.600	-12.380	0.100
172.700	-12.210	0.100
172.800	-10.861	0.100
172.900	-7.339	0.100
173.000	-11.095	0.100
173.100	-43.418	0.100
173.200	-29.307	0.100
173.300	-36.476	0.100
173.400	-15.737	0.100
173.500	-30.826	0.100
173.600	-27.239	0.100
173.700	-16.128	0.100
173.800	-7.464	0.099
173.900	-5.863	0.100
174.000	-28.373	0.099
174.100	-14.523	0.100
174.200	-23.913	0.100
174.300	-19.273	0.100
174.400	-5.494	0.100
174.500	-22.640	0.100
174.600	-14.923	0.100
174.700	-31.885	0.099
174.800	-27.422	0.100
174.900	-19.491	0.100
175.000	-30.502	0.100
175.100	-21.395	0.099
175.200	-17.692	0.100
175.300	-12.914	0.100
175.400	-14.943	0.100
175.500	-39.052	0.100
175.600	-0.055	0.100
175.700	-17.434	0.100
175.800	-34.101	0.100
175.900	-25.240	0.100
176.000	-14.580	0.100
176.100	-18.278	0.100
176.200	-7.313	0.100
176.300	-30.699	0.100
176.400	-31.403	0.100
176.500	-1.769	0.100
176.600	-14.202	0.100
176.700	-18.533	0.100
176.800	-15.521	0.099
176.900	-13.862	0.100
177.000	-21.468	0.100
177.100	-21.914	0.100
177.200	-16.744	0.100
177.300	-37.913	0.100
177.400	-27.013	0.100
177.500	-26.849	0.100
177.600	2.310	0.100
177.700	-44.489	0.100
177.800	-5.955	0.100
177.900	-36.443	0.100
178.000	-14.607	0.100
178.100	-23.029	0.100
178.200	-12.025	0.100
178.300	-21.795	0.100
178.400	9.609	0.100
178.500	-7.201	0.100
178.600	-22.680	0.100
178.700	-20.121	0.100
178.800	-32.186	0.100
178.900	-21.394	0.100
179.000	-9.017	0.100
179.100	-28.045	0.100
179.200	-10.442	0.100
179.300	-20.069	0.100
179.400	-11.425	0.100
179.500	-17.997	0.100
179.600	-21.613	0.100
179.700	-9.718	0.100
179.800	10.790	0.100
179.900	-20.648	0.100
180.000	16.612	0.100
180.100	11.144	0.100
180.200	17.559	0.100
180.300	10.737	0.100
180.400	18.376	0.100
180.500	30.249	0.100
180.600	19.758	0.100
180.700	15.975	0.100
180.800	23.621	0.100
180.900	15.783	0.099
181.000	40.067	0.100
181.100	21.204	0.100
181.200	24.863	0.100
181.300	24.961	0.100
181.400	29.530	0.100
181.500	29.715	0.100
181.600	16.128	0.100
181.700	20.117	0.100
181.800	33.682	0.100
181.900	17.186	0.100
182.000	25.848	0.100
182.100	22.018	0.100
182.200	20.252	0.100
182.300	16.281	0.100
182.400	31.395	0.100
182.500	15.035	0.100
182.600	19.907	0.100
182.700	10.072	0.100
182.800	6.773	0.100
182.900	7.428	0.100
183.000	26.191	0.100
183.100	10.745	0.100
183.200	-2.290	0.100
183.300	19.293	0.100
183.400	20.185	0.100
183.500	15.188	0.100
183.600	14.024	0.100
183.700	11.836	0.100
183.800	11.712	0.100
183.900	25.621	0.100
184.000	30.551	0.100
184.100	-5.528	0.100
184.200	7.391	0.100
184.300	14.352	0.100
184.400	21.369	0.100
184.500	21.425	0.100
184.600	-3.119	0.099
184.700	12.364	0.100
184.800	4.729	0.100
184.900	22.524	0.100
185.000	4.151	0.100
185.100	-4.215	0.100
185.200	14.182	0.100
185.300	5.484	0.100
185.400	34.061	0.100
185.500	4.790	0.100
185.600	14.892	0.100
185.700	18.693	0.100
185.800	19.719	0.100
185.900	13.373	0.100
186.000	-11.986	0.100
186.100	30.956	0.100
186.200	24.773	0.100
186.300	22.541	0.100
186.400	12.352	0.100
186.500	22.622	0.100
186.600	10.789	0.100
186.700	11.249	0.099
186.800	35.478	0.100
186.900	14.676	0.100
187.000	20.886	0.100
187.100	13.172	0.100
187.200	30.050	0.100
187.300	15.081	0.100
187.400	-6.689	0.100
187.500	16.605	0.100
187.600	28.203	0.100
187.700	15.374	0.100
187.800	15.128	0.100
187.900	14.154	0.100
188.000	36.492	0.100
188.100	23.201	0.100
188.200	24.801	0.100
188.300	28.624	0.100
188.400	27.844	0.100
188.500	-0.406	0.100
188.600	23.479	0.100
188.700	27.585	0.100
188.800	19.140	0.100
188.900	16.996	0.100
189.000	23.457	0.100
189.100	13.475	0.100
189.200	25.550	0.100
189.300	19.017	0.100
189.400	23.584	0.100
189.500	25.489	0.100
189.600	22.536	0.100
189.700	29.235	0.100
189.800	18.395	0.100
189.900	35.440	0.100
190.000	21.712	0.100
190.100	21.004	0.099
190.200	27.584	0.100
190.300	27.891	0.100
190.400	17.986	0.100
190.500	26.654	0.100
190.600	9.880	0.100
190.700	31.961	0.100
190.800	23.537	0.100
190.900	23.192	0.100
191.000	26.227	0.100
191.100	33.706	0.100
191.200	39.190	0.100
191.300	31.598	0.100
191.400	32.502	0.100
191.500	28.329	0.100
191.600	41.036	0.100
191.700	46.371	0.100
191.800	24.803	0.100
191.900	30.580	0.100
192.000	9.796	0.100
192.100	33.326	0.100
192.200	30.920	0.100
192.300	43.622	0.100
192.400	26.384	0.100
192.500	43.928	0.100
192.600	36.646	0.100
192.700	17.085	0.100
192.800	20.846	0.100
192.900	38.340	0.100
193.000	40.665	0.100
193.100	38.326	0.100
193.200	17.397	0.100
193.300	53.521	0.100
193.400	36.578	0.100
193.500	30.728	0.100
193.600	36.090	0.100
193.700	43.046	0.100
193.800	33.662	0.100
193.900	34.596	0.100
194.000	39.625	0.100
194.100	40.927	0.100
194.200	40.374	0.100
194.300	46.618	0.100
194.400	29.226	0.100
194.500	28.293	0.099
194.600	42.509	0.100
194.700	38.893	0.100
194.800	32.168	0.100
194.900	42.746	0.100
195.000	28.529	0.100
195.100	37.547	0.100
195.200	49.289	0.100
195.300	42.221	0.100
195.400	29.638	0.100
195.500	41.069	0.100
195.600	33.852	0.100
195.700	19.280	0.100
195.800	29.305	0.100
195.900	36.645	0.100
196.000	42.839	0.099
196.100	26.602	0.100
196.200	56.150	0.100
196.300	46.507	0.100
196.400	46.664	0.100
196.500	44.167	0.100
196.600	32.205	0.100
196.700	34.530	0.100
196.800	30.873	0.100
196.900	52.165	0.100
197.000	46.153	0.100
197.100	44.588	0.099
197.200	41.044	0.100
197.300	51.499	0.100
197.400	49.161	0.100
197.500	44.453	0.100
197.600	55.302	0.100
197.700	45.210	0.100
197.800	44.605	0.100
197.900	49.071	0.100
198.000	34.607	0.100
198.100	51.165	0.100
198.200	54.107	0.100
198.300	50.530	0.100
198.400	43.269	0.100
198.500	42.021	0.100
198.600	54.157	0.100
198.700	34.534	0.100
198.800	47.811	0.100
198.900	40.539	0.100
199.000	47.217	0.100
199.100	42.375	0.100
199.200	40.091	0.100
199.300	40.516	0.100
199.400	36.816	0.100
199.500	62.013	0.100
199.600	44.027	0.100
199.700	38.032	0.100
199.800	48.267	0.100
199.900	41.841	0.100
200.000	50.969	0.100
200.100	42.903	0.100
200.200	58.370	0.100
200.300	51.032	0.100
200.400	51.057	0.100
200.500	49.574	0.100
200.600	50.948	0.100
200.700	38.781	0.100
200.800	63.149	0.100
200.900	36.307	0.100
201.000	67.056	0.100
201.100	55.882	0.100
201.200	42.934	0.100
201.300	51.063	0.100
201.400	41.737	0.100
201.500	54.496	0.100
201.600	36.813	0.100
201.700	59.577	0.100
201.800	52.216	0.100
201.900	30.669	0.100
202.000	47.463	0.100
202.100	41.413	0.100
202.200	54.601	0.100
202.300	51.276	0.100
202.400	37.330	0.100
202.500	35.464	0.100
202.600	51.054	0.100
202.700	43.878	0.100
202.800	26.313	0.100
202.900	62.896	0.100
203.000	54.568	0.100
203.100	60.657	0.100
203.200	43.430	0.100
203.300	37.846	0.100
203.400	44.353	0.100
203.500	51.937	0.100
203.600	48.786	0.100
203.700	62.308	0.100
203.800	39.942	0.100
203.900	57.802	0.100
204.000	29.552	0.100
204.100	49.341	0.100
204.200	61.019	0.100
204.300	53.178	0.100
204.400	58.779	0.100
204.500	41.569	0.100
204.600	53.238	0.100
204.700	20.688	0.100
204.800	59.416	0.100
204.900	53.416	0.100
205.000	42.367	0.100
205.100	41.035	0.100
205.200	44.934	0.100
205.300	58.380	0.100
205.400	61.829	0.100
205.500	39.133	0.100
205.600	52.837	0.100
205.700	43.740	0.100
205.800	53.503	0.100
205.900	54.806	0.099
206.000	42.491	0.100
206.100	64.890	0.100
206.200	43.215	0.099
206.300	57.263	0.099
206.400	46.112	0.100
206.500	59.234	0.100
206.600	40.008	0.100
206.700	52.044	0.100
206.800	53.694	0.100
206.900	41.149	0.100
207.000	64.355	0.100
207.100	50.908	0.100
207.200	48.012	0.100
207.300	54.205	0.100
207.400	40.896	0.100
207.500	59.098	0.100
207.600	54.234	0.100
207.700	57.198	0.100
207.800	56.798	0.100
207.900	52.307	0.099
208.000	47.034	0.100
208.100	61.354	0.100
208.200	61.528	0.099
208.300	44.471	0.099
208.400	51.040	0.100
208.500	56.052	0.100
208.600	61.160	0.100
208.700	63.921	0.100
208.800	54.415	0.100
208.900	41.673	0.099
209.000	52.054	0.100
209.100	55.672	0.100
209.200	56.347	0.100
209.300	58.717	0.100
209.400	58.936	0.100
209.500	49.568	0.100
209.600	64.763	0.100
209.700	51.140	0.100
209.800	59.061	0.100
209.900	50.878	0.100
210.000	60.433	0.100
210.100	69.581	0.100
210.200	57.645	0.100
210.300	46.741	0.100
210.400	52.698	0.100
210.500	40.423	0.100
210.600	51.967	0.100
210.700	71.263	0.100
210.800	66.657	0.100
210.900	54.943	0.100
211.000	50.593	0.100
211.100	49.386	0.100
211.200	45.462	0.100
211.300	62.117	0.100
211.400	48.985	0.100
211.500	57.337	0.100
211.600	51.082	0.100
211.700	49.431	0.100
211.800	64.060	0.100
211.900	51.127	0.100
212.000	68.056	0.100
212.100	64.833	0.100
212.200	48.948	0.100
212.300	63.476	0.100
212.400	51.146	0.100
212.500	52.933	0.100
212.600	48.886	0.100
212.700	56.811	0.100
212.800	58.650	0.100
212.900	60.643	0.100
213.000	57.531	0.100
213.100	69.502	0.100
213.200	55.411	0.100
213.300	66.886	0.100
213.400	63.442	0.100
213.500	62.618	0.100
213.600	59.110	0.100
213.700	49.998	0.100
213.800	48.505	0.100
213.900	68.565	0.100
214.000	73.272	0.100
214.100	58.554	0.100
214.200	61.406	0.100
214.300	55.285	0.100
214.400	53.879	0.100
214.500	73.807	0.100
214.600	43.098	0.100
214.700	68.697	0.100
214.800	62.525	0.100
214.900	59.031	0.100
215.000	64.909	0.100
215.100	52.637	0.100
215.200	49.298	0.100
215.300	55.480	0.100
215.400	79.875	0.100
215.500	67.411	0.100
215.600	62.771	0.100
215.700	66.912	0.100
215.800	62.941	0.100
215.900	62.946	0.100
216.000	59.198	0.100
216.100	61.293	0.100
216.200	56.817	0.100
216.300	34.715	0.100
216.400	52.253	0.100
216.500	49.813	0.100
216.600	51.210	0.100
216.700	61.155	0.100
216.800	47.404	0.100
216.900	84.778	0.100
217.000	76.449	0.100
217.100	63.168	0.100
217.200	61.346	0.100
217.300	84.354	0.100
217.400	63.953	0.100
217.500	50.560	0.100
217.600	58.017	0.100
217.700	50.677	0.100
217.800	77.504	0.100
217.900	73.877	0.100
218.000	60.449	0.100
218.100	43.489	0.100
218.200	73.291	0.100
218.300	58.062	0.100
218.400	60.039	0.100
218.500	69.202	0.100
218.600	67.810	0.100
218.700	69.328	0.100
218.800	56.468	0.100
218.900	82.016	0.100
219.000	66.936	0.100
219.100	72.925	0.100
219.200	60.846	0.100
219.300	62.355	0.100
219.400	42.461	0.100
219.500	66.897	0.100
219.600	72.548	0.100
219.700	68.380	0.100
219.800	65.729	0.100
219.900	65.277	0.100
220.000	60.458	0.100
220.100	68.743	0.100
220.200	62.383	0.100
220.300	63.585	0.100
220.400	54.201	0.100
220.500	77.258	0.100
220.600	66.737	0.100
220.700	60.745	0.100
220.800	55.736	0.100
220.900	66.554	0.100
221.000	68.915	0.100
221.100	52.741	0.100
221.200	51.529	0.100
221.300	68.339	0.100
221.400	41.847	0.100
221.500	66.624	0.100
221.600	61.171	0.100
221.700	73.330	0.100
221.800	75.929	0.100
221.900	75.038	0.100
222.000	56.753	0.100
222.100	79.301	0.100
222.200	60.287	0.100
222.300	61.048	0.100
222.400	57.035	0.100
222.500	69.600	0.100
222.600	55.215	0.100
222.700	63.107	0.100
222.800	56.945	0.100
222.900	73.822	0.100
223.000	58.193	0.100
223.100	72.129	0.100
223.200	66.168	0.100
223.300	81.128	0.100
223.400	85.106	0.100
223.500	73.779	0.100
223.600	54.253	0.100
223.700	63.859	0.100
223.800	49.541	0.100
223.900	78.485	0.100
224.000	90.337	0.100
224.100	58.509	0.100
224.200	76.836	0.100
224.300	62.235	0.100
224.400	58.885	0.100
224.500	57.273	0.100
224.600	65.847	0.100
224.700	66.801	0.100
224.800	65.252	0.100
224.900	63.476	0.100
225.000	52.919	0.100
225.100	80.081	0.100
225.200	70.906	0.100
225.300	69.421	0.100
225.400	90.918	0.100
225.500	64.576	0.100
225.600	55.446	0.100
225.700	70.964	0.100
225.800	66.371	0.100
225.900	68.621	0.100
226.000	71.893	0.100
226.100	66.130	0.100
226.200	59.248	0.100
226.300	60.228	0.100
226.400	58.336	0.100
226.500	61.642	0.100
226.600	69.548	0.100
226.700	62.011	0.100
226.800	76.624	0.100
226.900	76.776	0.100
227.000	63.934	0.100
227.100	76.279	0.100
227.200	58.166	0.100
227.300	56.704	0.100
227.400	84.689	0.100
227.500	67.553	0.100
227.600	71.583	0.100
227.700	71.637	0.100
227.800	49.948	0.100
227.900	60.404	0.100
228.000	69.537	0.100
228.100	51.783	0.100
228.200	74.933	0.100
228.300	92.943	0.100
228.400	56.930	0.100
228.500	72.370	0.100
228.600	69.183	0.100
228.700	67.802	0.100
228.800	69.652	0.100
228.900	66.265	0.100
229.000	65.470	0.100
229.100	64.945	0.100
229.200	47.927	0.100
229.300	74.245	0.100
229.400	69.352	0.100
229.500	72.663	0.100
229.600	65.993	0.100
229.700	67.188	0.100
229.800	76.505	0.100
229.900	79.558	0.100
230.000	78.470	0.100
230.100	62.463	0.100
230.200	76.440	0.100
230.300	81.835	0.100
230.400	81.989	0.100
230.500	76.829	0.100
230.600	69.217	0.100
230.700	60.646	0.100
230.800	71.482	0.100
230.900	68.054	0.100
231.000	67.165	0.100
231.100	82.595	0.100
231.200	70.946	0.100
231.300	65.818	0.100
231.400	62.172	0.100
231.500	59.687	0.100
231.600	70.374	0.100
231.700	75.311	0.100
231.800	71.011	0.100
231.900	70.885	0.100
232.000	61.142	0.100
232.100	84.470	0.100
232.200	77.239	0.100
232.300	75.646	0.100
232.400	62.420	0.100
232.500	66.112	0.100
232.600	60.663	0.100
232.700	79.361	0.100
232.800	66.586	0.100
232.900	79.133	0.100
233.000	76.804	0.100
233.100	62.445	0.100
233.200	86.517	0.100
233.300	62.483	0.100
233.400	79.560	0.100
233.500	64.919	0.100
233.600	61.308	0.100
233.700	64.999	0.100
233.800	53.280	0.100
233.900	69.781	0.100
234.000	75.137	0.100
234.100	69.504	0.100
234.200	67.463	0.100
234.300	72.229	0.100
234.400	75.514	0.100
234.500	70.054	0.100
234.600	60.292	0.100
234.700	68.643	0.100
234.800	60.616	0.100
234.900	74.419	0.100
235.000	46.941	0.100
235.100	78.229	0.100
235.200	75.063	0.100
235.300	65.997	0.100
235.400	84.034	0.100
235.500	63.656	0.100
235.600	76.250	0.100
235.700	60.664	0.100
235.800	69.016	0.100
235.900	71.048	0.100
236.000	67.209	0.100
236.100	59.590	0.100
236.200	62.991	0.100
236.300	65.962	0.100
236.400	74.055	0.100
236.500	71.529	0.100
236.600	65.636	0.100
236.700	66.253	0.100
236.800	86.387	0.100
236.900	72.214	0.100
237.000	66.315	0.100
237.100	72.271	0.100
237.200	69.488	0.100
237.300	59.851	0.100
237.400	68.348	0.100
237.500	68.934	0.100
237.600	67.140	0.100
237.700	45.708	0.100
237.800	73.139	0.100
237.900	70.622	0.100
238.000	82.835	0.100
238.100	73.975	0.100
238.200	62.348	0.100
238.300	72.730	0.100
238.400	69.646	0.100
238.500	66.056	0.100
238.600	52.639	0.100
238.700	76.737	0.100
238.800	72.026	0.100
238.900	59.628	0.100
239.000	95.703	0.100
239.100	62.584	0.100
239.200	69.436	0.100
239.300	74.045	0.100
239.400	60.224	0.100
239.500	66.632	0.100
239.600	70.193	0.100
239.700	58.308	0.100
239.800	77.118	0.100
239.900	76.262	0.100
240.000	46.844	0.100
240.100	51.345	0.100
240.200	25.825	0.100
240.300	39.424	0.100
240.400	22.405	0.100
240.500	19.538	0.100
240.600	6.033	0.100
240.700	11.102	0.100
240.800	-5.170	0.100
240.900	-0.352	0.100
241.000	-21.183	0.100
241.100	-8.309	0.100
241.200	-18.984	0.100
241.300	-18.331	0.100
241.400	-51.724	0.100
241.500	-15.818	0.100
241.600	-16.916	0.100
241.700	-24.893	0.100
241.800	-30.617	0.100
241.900	-48.971	0.100
242.000	-17.421	0.100
242.100	-15.200	0.100
242.200	-34.289	0.100
242.300	-41.955	0.100
242.400	-54.662	0.100
242.500	-45.550	0.100
242.600	-46.087	0.100
242.700	-47.154	0.100
242.800	-41.063	0.100
242.900	-39.745	0.100
243.000	-48.089	0.100
243.100	-35.413	0.100
243.200	-50.033	0.100
243.300	-34.993	0.100
243.400	-57.250	0.100
243.500	-36.522	0.100
243.600	-43.836	0.100
243.700	-36.218	0.100
243.800	-35.715	0.100
243.900	-49.541	0.100
244.000	-55.579	0.100
244.100	-45.043	0.100
244.200	-23.764	0.100
244.300	-28.768	0.100
244.400	-47.382	0.100
244.500	-43.859	0.100
244.600	-19.203	0.100
244.700	-38.021	0.100
244.800	-37.289	0.100
244.900	-37.628	0.100
245.000	-33.531	0.100
245.100	-42.635	0.100
245.200	-31.067	0.100
245.300	-18.409	0.100
245.400	-38.395	0.100
245.500	-36.380	0.100
245.600	-28.656	0.100
245.700	-24.436	0.100
245.800	-41.299	0.100
245.900	-25.650	0.100
246.000	-34.463	0.100
246.100	-26.478	0.100
246.200	-33.393	0.100
246.300	-47.974	0.100
246.400	-40.310	0.100
246.500	-32.902	0.100
246.600	-18.305	0.100
246.700	-20.867	0.100
246.800	-45.284	0.100
246.900	-31.984	0.100
247.000	-37.398	0.100
247.100	-17.810	0.100
247.200	-23.307	0.100
247.300	-19.891	0.100
247.400	-16.946	0.100
247.500	-34.947	0.100
247.600	-16.074	0.100
247.700	-35.889	0.100
247.800	-28.597	0.100
247.900	-28.000	0.100
248.000	-25.271	0.100
248.100	-48.343	0.100
248.200	-22.704	0.100
248.300	-19.548	0.100
248.400	-27.597	0.100
248.500	-31.503	0.100
248.600	-16.796	0.100
248.700	-37.853	0.100
248.800	-25.523	0.100
248.900	-24.399	0.100
249.000	-21.004	0.100
249.100	-17.887	0.100
249.200	-43.500	0.100
249.300	-29.546	0.100
249.400	-23.463	0.100
249.500	-28.298	0.100
249.600	-33.651	0.100
249.700	-25.969	0.100
249.800	-17.852	0.100
249.900	-35.016	0.100
250.000	-32.078	0.100
250.100	-17.487	0.100
250.200	-15.100	0.100
250.300	-24.282	0.100
250.400	-28.925	0.100
250.500	-33.496	0.100
250.600	-28.196	0.100
250.700	-17.861	0.100
250.800	-23.296	0.100
250.900	-41.630	0.100
251.000	-27.367	0.100
251.100	-12.386	0.100
251.200	-32.694	0.100
251.300	-40.562	0.100
251.400	-32.524	0.100
251.500	-28.459	0.100
251.600	-20.989	0.100
251.700	-32.425	0.100
251.800	-27.623	0.100
251.900	-38.748	0.100
252.000	-23.186	0.100
252.100	-28.296	0.100
252.200	-29.065	0.100
252.300	-30.701	0.100
252.400	-5.090	0.100
252.500	-28.195	0.100
252.600	-23.617	0.100
252.700	-25.067	0.100
252.800	-24.222	0.100
252.900	-28.212	0.100
253.000	-13.574	0.100
253.100	-29.109	0.100
253.200	-31.652	0.100
253.300	-34.321	0.100
253.400	-23.767	0.100
253.500	-38.395	0.100
253.600	-26.400	0.100
253.700	-26.763	0.100
253.800	-25.816	0.100
253.900	-29.480	0.100
254.000	-41.276	0.100
254.100	-26.630	0.100
254.200	-28.874	0.100
254.300	-36.460	0.100
254.400	-31.909	0.100
254.500	-31.879	0.100
254.600	-20.470	0.100
254.700	-5.507	0.100
254.800	-27.232	0.100
254.900	-30.490	0.100
255.000	-21.083	0.100
255.100	-45.389	0.100
255.200	-28.207	0.100
255.300	-24.785	0.100
255.400	-27.019	0.100
255.500	-36.535	0.100
255.600	-31.905	0.100
255.700	-26.800	0.100
255.800	-30.643	0.100
255.900	-19.894	0.100
256.000	-31.215	0.100
256.100	-37.407	0.100
256.200	-37.818	0.100
256.300	-13.844	0.100
256.400	-11.493	0.100
256.500	-34.837	0.100
256.600	-35.360	0.100
256.700	-22.148	0.100
256.800	-24.602	0.100
256.900	-20.352	0.100
257.000	-20.508	0.100
257.100	-23.417	0.100
257.200	-9.121	0.100
257.300	-26.798	0.100
257.400	-39.229	0.100
257.500	-29.711	0.100
257.600	-36.906	0.100
257.700	-16.460	0.100
257.800	-36.328	0.100
257.900	-30.321	0.100
258.000	-47.287	0.100
258.100	-24.057	0.100
258.200	-23.683	0.100
258.300	-27.239	0.100
258.400	-41.549	0.100
258.500	-28.419	0.100
258.600	-40.140	0.100
258.700	-17.083	0.100
258.800	-28.414	0.100
258.900	-33.042	0.100
259.000	-29.941	0.100
259.100	-28.187	0.100
259.200	-11.955	0.100
259.300	-35.827	0.100
259.400	-23.541	0.100
259.500	-34.178	0.100
259.600	-24.791	0.100
259.700	-43.313	0.100
259.800	-48.348	0.100
259.900	-17.287	0.100
260.000	-19.311	0.100
260.100	-26.015	0.100
260.200	-38.114	0.100
260.300	-20.955	0.100
260.400	-24.323	0.100
260.500	-32.684	0.100
260.600	-19.107	0.100
260.700	-34.103	0.100
260.800	-15.081	0.100
260.900	-28.747	0.100
261.000	-23.152	0.100
261.100	-21.573	0.100
261.200	-27.075	0.100
261.300	-21.307	0.100
261.400	-26.210	0.100
261.500	-29.352	0.100
261.600	-15.564	0.100
261.700	-36.935	0.100
261.800	-47.146	0.100
261.900	-13.762	0.100
262.000	-50.657	0.100
262.100	-21.743	0.100
262.200	-31.066	0.100
262.300	-21.540	0.100
262.400	-36.866	0.100
262.500	-26.848	0.100
262.600	-35.827	0.100
262.700	-16.593	0.100
262.800	-23.309	0.100
262.900	-27.202	0.100
263.000	-41.313	0.100
263.100	-20.398	0.100
263.200	-17.945	0.100
263.300	-23.359	0.100
263.400	-30.721	0.100
263.500	-33.752	0.100
263.600	-34.641	0.100
263.700	-32.597	0.100
263.800	-31.257	0.100
263.900	-55.967	0.100
264.000	-156.255	0.100
264.100	-103.875	0.100
264.200	-64.716	0.100
264.300	-50.493	0.100
264.400	-38.504	0.100
264.500	-17.129	0.100
264.600	-37.791	0.100
264.700	-23.753	0.100
264.800	-23.160	0.100
264.900	-24.104	0.100
265.000	-37.023	0.100
265.100	-29.104	0.100
265.200	-37.369	0.100
265.300	-25.761	0.100
265.400	-27.506	0.100
265.500	-42.005	0.100
265.600	-43.462	0.100
265.700	-16.580	0.100
265.800	-16.844	0.100
265.900	-29.549	0.100
266.000	-25.407	0.100
266.100	-32.376	0.100
266.200	-20.570	0.100
266.300	-26.224	0.100
266.400	-33.582	0.100
266.500	-31.807	0.100
266.600	-28.963	0.100
266.700	-15.485	0.100
266.800	-42.095	0.100
266.900	-23.099	0.100
267.000	-22.678	0.100
267.100	-13.589	0.100
267.200	-28.463	0.100
267.300	-14.314	0.100
267.400	-29.082	0.100
267.500	-29.738	0.100
267.600	-21.651	0.100
267.700	-22.962	0.100
267.800	-32.702	0.100
267.900	-29.155	0.100
268.000	-16.841	0.100
268.100	-25.758	0.100
268.200	-26.715	0.100
268.300	-31.307	0.100
268.400	-23.523	0.100
268.500	-22.425	0.100
268.600	-24.102	0.100
268.700	-19.179	0.100
268.800	-25.334	0.100
268.900	-26.366	0.100
269.000	-19.415	0.100
269.100	-33.291	0.100
269.200	-34.896	0.100
269.300	-31.742	0.100
269.400	-24.182	0.100
269.500	-23.305	0.100
269.600	-33.666	0.100
269.700	-34.507	0.100
269.800	-21.955	0.100
269.900	-28.970	0.100
270.000	-20.560	0.100
270.100	-18.767	0.100
270.200	-14.782	0.100
270.300	-12.872	0.100
270.400	-47.527	0.100
270.500	-39.089	0.100
270.600	-20.455	0.100
270.700	-19.063	0.100
270.800	-17.056	0.100
270.900	-7.481	0.100
271.000	-32.081	0.100
271.100	-26.931	0.100
271.200	-29.665	0.100
271.300	-28.740	0.100
271.400	-22.132	0.100
271.500	-23.485	0.100
271.600	-26.275	0.100
271.700	-31.058	0.100
271.800	-25.837	0.100
271.900	-37.158	0.100
272.000	-38.481	0.100
272.100	-24.532	0.100
272.200	-18.927	0.100
272.300	-23.582	0.100
272.400	-27.485	0.100
272.500	-21.698	0.100
272.600	-32.944	0.100
272.700	-19.451	0.100
272.800	-26.538	0.100
272.900	-43.645	0.100
273.000	-20.660	0.100
273.100	-37.025	0.100
273.200	-21.425	0.100
273.300	-45.234	0.100
273.400	-32.345	0.100
273.500	-17.015	0.100
273.600	-22.988	0.100
273.700	-29.995	0.100
273.800	-15.681	0.100
273.900	-35.865	0.100
274.000	-34.077	0.100
274.100	-35.832	0.100
274.200	-19.151	0.100
274.300	-30.411	0.100
274.400	-27.838	0.100
274.500	-24.727	0.100
274.600	-28.814	0.100
274.700	-28.763	0.100
274.800	-23.807	0.100
274.900	-21.421	0.100
275.000	-40.973	0.100
275.100	-18.476	0.100
275.200	-30.373	0.100
275.300	-36.231	0.100
275.400	-25.343	0.100
275.500	-30.929	0.100
275.600	-14.015	0.100
275.700	-31.260	0.100
275.800	-13.743	0.100
275.900	-12.174	0.100
276.000	-35.290	0.100
276.100	-28.460	0.100
276.200	-30.102	0.100
276.300	-14.151	0.100
276.400	-25.357	0.100
276.500	-21.205	0.100
276.600	-31.833	0.100
276.700	-35.898	0.100
276.800	-33.375	0.100
276.900	-17.108	0.100
277.000	-28.578	0.100
277.100	-30.443	0.100
277.200	-19.419	0.100
277.300	-29.856	0.100
277.400	-26.432	0.100
277.500	-19.694	0.100
277.600	-16.393	0.100
277.700	-22.665	0.100
277.800	-22.551	0.100
277.900	-29.861	0.100
278.000	-30.929	0.100
278.100	-32.326	0.100
278.200	-24.753	0.100
278.300	-40.769	0.100
278.400	-16.537	0.100
278.500	-39.770	0.100
278.600	-19.406	0.100
278.700	-33.574	0.100
278.800	-21.079	0.100
278.900	-12.836	0.100
279.000	-41.908	0.100
279.100	-22.023	0.100
279.200	-20.918	0.100
279.300	-23.673	0.100
279.400	-28.026	0.100
279.500	-20.441	0.100
279.600	-25.994	0.100
279.700	-47.495	0.100
279.800	-28.175	0.100
279.900	-22.602	0.100
280.000	-29.144	0.100
280.100	-28.082	0.100
280.200	-39.131	0.100
280.300	-35.327	0.100
280.400	-13.207	0.100
280.500	-21.274	0.100
280.600	-28.799	0.100
280.700	-33.391	0.100
280.800	-34.709	0.100
280.900	-21.332	0.100
281.000	-28.277	0.100
281.100	-22.942	0.100
281.200	-31.439	0.100
281.300	-16.787	0.100
281.400	-8.149	0.100
281.500	-41.335	0.100
281.600	-34.497	0.100
281.700	-23.996	0.100
281.800	-20.629	0.100
281.900	-25.614	0.100
282.000	-18.382	0.100
282.100	-30.031	0.100
282.200	-32.874	0.100
282.300	-20.466	0.100
282.400	-21.656	0.100
282.500	-26.786	0.100
282.600	-21.763	0.100
282.700	-32.450	0.100
282.800	-19.073	0.100
282.900	-36.048	0.100
283.000	-13.420	0.100
283.100	-38.001	0.100
283.200	-26.455	0.100
283.300	-4.228	0.100
283.400	-33.561	0.100
283.500	-18.118	0.100
283.600	-35.796	0.100
283.700	-15.424	0.100
283.800	-40.359	0.100
283.900	-6.799	0.100
284.000	-28.616	0.100
284.100	-24.732	0.100
284.200	-21.886	0.100
284.300	-27.447	0.100
284.400	-23.526	0.100
284.500	-16.905	0.100
284.600	-28.424	0.100
284.700	-42.506	0.100
284.800	-32.968	0.100
284.900	-14.649	0.100
285.000	-17.956	0.100
285.100	-28.092	0.100
285.200	-18.858	0.100
285.300	-40.090	0.100
285.400	-43.881	0.100
285.500	-13.527	0.100
285.600	-17.082	0.100
285.700	-23.172	0.100
285.800	-14.500	0.100
285.900	-27.587	0.100
286.000	-25.028	0.100
286.100	-25.324	0.100
286.200	-27.331	0.100
286.300	-50.928	0.100
286.400	-24.990	0.100
286.500	-19.185	0.100
286.600	-34.854	0.100
286.700	-19.812	0.100
286.800	-8.224	0.100
286.900	-15.987	0.100
287.000	-28.713	0.100
287.100	-32.393	0.100
287.200	-26.372	0.100
287.300	-24.495	0.100
287.400	-17.551	0.100
287.500	-15.215	0.100
287.600	-30.657	0.100
287.700	-27.575	0.100
287.800	-39.204	0.100
287.900	-30.414	0.100
288.000	-25.579	0.100
288.100	-28.583	0.100
288.200	-34.501	0.100
288.300	-19.640	0.100
288.400	-24.502	0.100
288.500	-18.947	0.100
288.600	-22.360	0.100
288.700	-30.002	0.100
288.800	-23.095	0.100
288.900	-29.440	0.100
289.000	-20.630	0.100
289.100	-48.157	0.100
289.200	-27.896	0.100
289.300	-32.676	0.100
289.400	-11.326	0.100
289.500	-9.737	0.100
289.600	-32.343	0.100
289.700	-18.154	0.100
289.800	-19.990	0.100
289.900	-32.093	0.100
290.000	-27.535	0.100
290.100	-23.491	0.100
290.200	-27.163	0.100
290.300	-37.309	0.100
290.400	-5.108	0.100
290.500	-31.055	0.100
290.600	-19.609	0.100
290.700	-17.567	0.100
290.800	-18.644	0.100
290.900	-26.957	0.100
291.000	-26.164	0.100
291.100	-42.557	0.100
291.200	-18.482	0.100
291.300	-30.773	0.100
291.400	-21.918	0.100
291.500	-35.296	0.100
291.600	-27.042	0.100
291.700	-17.959	0.100
291.800	-10.319	0.100
291.900	-19.717	0.100
292.000	-34.006	0.100
292.100	-33.232	0.100
292.200	-26.650	0.100
292.300	-19.212	0.100
292.400	-30.903	0.100
292.500	-20.427	0.100
292.600	-29.780	0.100
292.700	-40.160	0.100
292.800	-20.709	0.100
292.900	-20.201	0.100
293.000	-26.520	0.100
293.100	-20.720	0.100
293.200	-27.569	0.100
293.300	-35.137	0.100
293.400	-32.281	0.099
293.500	-24.620	0.100
293.600	-19.649	0.100
293.700	-36.591	0.100
293.800	-26.653	0.100
293.900	-23.515	0.100
294.000	-17.000	0.100
294.100	-14.014	0.100
294.200	-25.749	0.100
294.300	-21.262	0.100
294.400	-9.468	0.100
294.500	-12.345	0.100
294.600	-36.152	0.100
294.700	-42.264	0.100
294.800	-10.452	0.100
294.900	-22.336	0.100
295.000	-30.112	0.100
295.100	-40.959	0.100
295.200	-15.187	0.100
295.300	-24.245	0.100
295.400	-31.762	0.100
295.500	-25.219	0.100
295.600	-21.919	0.100
295.700	-27.336	0.100
295.800	-19.457	0.100
295.900	-25.841	0.100
296.000	-28.520	0.100
296.100	-37.587	0.100
296.200	-20.525	0.099
296.300	-25.725	0.100
296.400	-22.277	0.100
296.500	-37.383	0.100
296.600	-19.572	0.100
296.700	-24.871	0.100
296.800	-7.241	0.100
296.900	-17.449	0.100
297.000	-33.624	0.100
297.100	-21.898	0.100
297.200	-17.057	0.100
297.300	-31.000	0.100
297.400	-22.816	0.100
297.500	-37.432	0.100
297.600	-12.275	0.100
297.700	3.469	0.100
297.800	-25.238	0.100
297.900	-42.024	0.100
298.000	-22.920	0.100
298.100	-31.739	0.100
298.200	-28.138	0.100
298.300	-19.728	0.100
298.400	-31.567	0.100
298.500	-8.478	0.100
298.600	-31.189	0.100
298.700	-38.890	0.100
298.800	-12.826	0.100
298.900	-32.260	0.100
299.000	-33.013	0.100
299.100	-15.823	0.100
299.200	-24.575	0.100
299.300	-35.660	0.100
299.400	-19.284	0.100
299.500	-27.698	0.100
299.600	-9.790	0.100
299.700	-16.525	0.100
299.800	-22.391	0.100
299.900	-22.212	0.100
300.000	-18.878	0.100
300.100	-28.042	0.100
300.200	-30.562	0.100
300.300	-19.117	0.100
300.400	-40.471	0.100
300.500	-33.347	0.100
300.600	-29.699	0.100
300.700	-31.454	0.100
300.800	-23.648	0.100
300.900	-20.664	0.100
301.000	-27.806	0.100
301.100	-22.031	0.100
301.200	-21.068	0.100
301.300	-55.448	0.100
301.400	-6.555	0.100
301.500	-19.890	0.100
301.600	-19.539	0.100
301.700	-29.036	0.100
301.800	-28.099	0.100
301.900	-11.397	0.100
302.000	-23.560	0.100
302.100	-17.974	0.100
302.200	-9.989	0.100
302.300	-21.404	0.100
302.400	-17.710	0.100
302.500	-21.664	0.100
302.600	-22.783	0.100
302.700	-21.853	0.100
302.800	-32.067	0.100
302.900	-19.022	0.100
303.000	-33.675	0.100
303.100	-38.949	0.100
303.200	-35.830	0.100
303.300	-16.201	0.100
303.400	-21.388	0.100
303.500	-24.526	0.100
303.600	-9.177	0.100
303.700	-22.289	0.100
303.800	-21.012	0.100
303.900	-17.275	0.100
304.000	-16.692	0.100
304.100	-29.159	0.100
304.200	-31.363	0.100
304.300	-20.745	0.100
304.400	1.068	0.100
304.500	-36.056	0.100
304.600	-26.810	0.100
304.700	-20.082	0.100
304.800	-23.933	0.100
304.900	-27.633	0.100
305.000	-40.388	0.100
305.100	-31.311	0.100
305.200	-9.241	0.100
305.300	-28.143	0.100
305.400	-24.912	0.100
305.500	-34.993	0.100
305.600	-19.202	0.100
305.700	-4.768	0.100
305.800	-30.089	0.100
305.900	-14.232	0.100
306.000	-22.838	0.100
306.100	-28.443	0.100
306.200	-6.589	0.100
306.300	-19.642	0.100
306.400	-19.286	0.100
306.500	-18.404	0.100
306.600	-29.090	0.100
306.700	-39.604	0.100
306.800	-26.972	0.100
306.900	-27.392	0.100
307.000	-5.710	0.100
307.100	-8.085	0.100
307.200	-14.049	0.100
307.300	-39.246	0.100
307.400	-21.207	0.100
307.500	-38.631	0.100
307.600	-23.127	0.100
307.700	-44.881	0.100
307.800	-25.715	0.100
307.900	-23.511	0.100
308.000	-23.930	0.100
308.100	-13.682	0.100
308.200	-34.783	0.100
308.300	-30.706	0.100
308.400	-16.079	0.100
308.500	-19.337	0.100
308.600	-27.616	0.100
308.700	-23.349	0.100
308.800	-40.160	0.100
308.900	-14.762	0.100
309.000	-31.238	0.100
309.100	-30.056	0.100
309.200	-33.199	0.100
309.300	-16.233	0.100
309.400	-15.769	0.100
309.500	-12.513	0.100
309.600	-35.282	0.100
309.700	-11.160	0.100
309.800	-39.705	0.100
309.900	-19.952	0.100
310.000	-12.449	0.100
310.100	-33.006	0.100
310.200	-36.180	0.100
310.300	-19.509	0.100
310.400	-25.220	0.100
310.500	-19.278	0.100
310.600	-12.036	0.100
310.700	-26.674	0.100
310.800	-35.822	0.099
310.900	-18.484	0.100
311.000	-17.697	0.100
311.100	-24.471	0.100
311.200	-21.415	0.100
311.300	-21.843	0.100
311.400	-13.994	0.100
311.500	-46.010	0.100
311.600	-28.615	0.100
311.700	-22.655	0.100
311.800	-20.326	0.100
311.900	-23.216	0.100
312.000	-37.277	0.100
312.100	-19.423	0.100
312.200	-37.929	0.100
312.300	-14.308	0.100
312.400	-25.638	0.100
312.500	-10.638	0.100
312.600	-3.786	0.100
312.700	-19.744	0.100
312.800	-9.870	0.100
312.900	-18.644	0.100
313.000	-30.387	0.100
313.100	-28.761	0.100
313.200	-11.858	0.100
313.300	-26.648	0.100
313.400	-23.929	0.100
313.500	-17.916	0.100
313.600	-28.335	0.100
313.700	-13.862	0.100
313.800	-32.246	0.100
313.900	-31.270	0.100
314.000	-38.440	0.100
314.100	-35.489	0.100
314.200	-30.360	0.100
314.300	-20.623	0.100
314.400	-7.195	0.100
314.500	-31.939	0.100
314.600	0.048	0.100
314.700	-17.216	0.100
314.800	-9.400	0.100
314.900	-32.347	0.100
315.000	-36.351	0.100
315.100	-26.986	0.100
315.200	-26.865	0.100
315.300	-21.141	0.100
315.400	-28.712	0.100
315.500	-23.887	0.100
315.600	-22.909	0.100
315.700	-12.483	0.100
315.800	-35.917	0.100
315.900	-23.888	0.100
316.000	-44.618	0.100
316.100	-22.951	0.100
316.200	-30.503	0.100
316.300	-38.513	0.100
316.400	-20.262	0.100
316.500	-27.753	0.100
316.600	-40.032	0.099
316.700	-12.716	0.100
316.800	-22.763	0.100
316.900	-25.770	0.100
317.000	-25.753	0.100
317.100	-32.792	0.100
317.200	-13.913	0.100
317.300	-27.388	0.100
317.400	-11.739	0.100
317.500	-23.289	0.100
317.600	-19.363	0.100
317.700	-22.632	0.100
317.800	-31.101	0.100
317.900	-23.762	0.100
318.000	-16.962	0.100
318.100	-24.590	0.100
318.200	-33.215	0.100
318.300	-19.165	0.100
318.400	-25.564	0.100
318.500	-12.476	0.100
318.600	-30.494	0.100
318.700	-25.310	0.100
318.800	-30.502	0.100
318.900	-14.680	0.100
319.000	-7.990	0.100
319.100	-40.687	0.100
319.200	-4.419	0.100
319.300	-22.738	0.100
319.400	-37.949	0.100
319.500	2.001	0.100
319.600	-22.629	0.100
319.700	-7.775	0.100
319.800	-27.269	0.100
319.900	-28.615	0.100
320.000	-0.017	0.100
320.100	-36.188	0.100
320.200	-31.501	0.100
320.300	-26.861	0.100
320.400	-20.656	0.100
320.500	-20.744	0.100
320.600	-14.366	0.100
320.700	-34.876	0.100
320.800	-21.145	0.100
320.900	-30.682	0.100
321.000	-25.323	0.100
321.100	-23.809	0.100
321.200	-14.353	0.100
321.300	-29.179	0.100
321.400	-24.613	0.100
321.500	-29.461	0.100
321.600	0.557	0.100
321.700	-15.402	0.100
321.800	-13.170	0.100
321.900	-16.058	0.100
322.000	-39.858	0.100
322.100	-19.777	0.100
322.200	-24.918	0.100
322.300	-22.519	0.100
322.400	-33.577	0.100
322.500	-16.709	0.100
322.600	-24.612	0.100
322.700	-34.144	0.100
322.800	-11.924	0.100
322.900	-27.423	0.100
323.000	-25.101	0.100
323.100	-22.627	0.100
323.200	-30.339	0.100
323.300	-33.613	0.100
323.400	-21.113	0.100
323.500	-16.861	0.100
323.600	-8.433	0.100
323.700	-19.648	0.100
323.800	-17.328	0.100
323.900	-20.810	0.100
324.000	-31.285	0.100
324.100	-15.695	0.100
324.200	-23.405	0.099
324.300	-26.652	0.100
324.400	-32.707	0.100
324.500	-19.756	0.100
324.600	-20.123	0.100
324.700	-28.271	0.100
324.800	-18.402	0.100
324.900	-36.540	0.100
325.000	-6.677	0.100
325.100	-15.519	0.100
325.200	-20.882	0.100
325.300	-26.520	0.100
325.400	-19.581	0.100
325.500	-22.147	0.100
325.600	-28.575	0.100
325.700	-26.487	0.100
325.800	-16.523	0.100
325.900	-33.239	0.100
326.000	-31.283	0.100
326.100	-14.821	0.100
326.200	-23.128	0.100
326.300	-41.314	0.100
326.400	-29.034	0.100
326.500	-34.346	0.100
326.600	-9.904	0.100
326.700	-11.538	0.100
326.800	-24.779	0.100
326.900	-36.010	0.100
327.000	-24.744	0.100
327.100	-1.677	0.100
327.200	-29.780	0.100
327.300	-24.459	0.100
327.400	-20.650	0.100
327.500	-22.936	0.100
327.600	-18.127	0.100
327.700	-40.015	0.100
327.800	-12.738	0.100
327.900	-4.616	0.100
328.000	-15.841	0.100
328.100	-17.426	0.099
328.200	-7.931	0.100
328.300	-37.771	0.100
328.400	-10.868	0.100
328.500	-14.217	0.100
328.600	-20.237	0.100
328.700	-33.145	0.100
328.800	-27.578	0.100
328.900	-21.088	0.100
329.000	-15.733	0.100
329.100	-38.920	0.100
329.200	-8.103	0.100
329.300	-31.054	0.100
329.400	-8.210	0.099
329.500	-1.533	0.100
329.600	-36.231	0.099
329.700	-20.027	0.100
329.800	-14.705	0.100
329.900	-1.739	0.099
330.000	8.621	0.100
330.100	-8.134	0.100
330.200	8.987	0.100
330.300	19.176	0.100
330.400	35.926	0.100
330.500	12.250	0.100
330.600	18.235	0.100
330.700	34.320	0.100
330.800	17.823	0.100
330.900	26.283	0.100
331.000	28.965	0.100
331.100	21.137	0.099
331.200	28.298	0.100
331.300	23.975	0.100
331.400	37.572	0.100
331.500	18.014	0.100
331.600	31.346	0.100
331.700	34.976	0.100
331.800	12.285	0.100
331.900	22.401	0.100
332.000	16.417	0.100
332.100	24.535	0.100
332.200	21.866	0.100
332.300	21.136	0.100
332.400	0.165	0.100
332.500	33.972	0.099
332.600	24.666	0.100
332.700	17.409	0.100
332.800	19.010	0.100
332.900	13.725	0.100
333.000	22.555	0.100
333.100	16.801	0.100
333.200	2.987	0.100
333.300	14.889	0.100
333.400	21.471	0.100
333.500	14.588	0.100
333.600	24.334	0.100
333.700	0.286	0.100
333.800	10.115	0.100
333.900	22.726	0.099
334.000	6.533	0.100
334.100	15.296	0.100
334.200	25.473	0.100
334.300	18.134	0.100
334.400	-0.177	0.100
334.500	1.129	0.100
334.600	12.142	0.100
334.700	18.056	0.100
334.800	21.244	0.100
334.900	6.241	0.100
335.000	31.896	0.100
335.100	-1.040	0.100
335.200	3.341	0.100
335.300	23.831	0.100
335.400	6.521	0.100
335.500	14.441	0.100
335.600	22.094	0.100
335.700	13.950	0.100
335.800	20.175	0.100
335.900	11.686	0.100
336.000	29.094	0.100
336.100	-2.165	0.100
336.200	-2.704	0.100
336.300	19.732	0.100
336.400	15.928	0.100
336.500	6.760	0.100
336.600	10.632	0.100
336.700	9.650	0.100
336.800	8.802	0.100
336.900	9.274	0.100
337.000	22.988	0.100
337.100	24.172	0.100
337.200	16.633	0.100
337.300	19.325	0.100
337.400	25.491	0.100
337.500	13.746	0.100
337.600	26.924	0.100
337.700	25.683	0.100
337.800	23.963	0.100
337.900	4.842	0.100
338.000	33.449	0.100
338.100	19.002	0.100
338.200	17.490	0.100
338.300	33.769	0.100
338.400	28.059	0.100
338.500	7.593	0.100
338.600	40.638	0.100
338.700	24.915	0.100
338.800	25.242	0.100
338.900	34.159	0.100
339.000	31.220	0.100
339.100	33.704	0.100
339.200	20.110	0.100
339.300	28.184	0.100
339.400	25.819	0.100
339.500	24.268	0.100
339.600	14.989	0.100
339.700	35.893	0.100
339.800	43.813	0.100
339.900	28.452	0.100
340.000	22.645	0.100
340.100	34.248	0.100
340.200	29.223	0.100
340.300	23.996	0.100
340.400	23.034	0.100
340.500	23.016	0.100
340.600	19.564	0.100
340.700	47.272	0.100
340.800	26.867	0.100
340.900	33.356	0.100
341.000	27.064	0.100
341.100	31.843	0.100
341.200	26.935	0.100
341.300	21.604	0.100
341.400	35.227	0.100
341.500	25.203	0.100
341.600	29.943	0.100
341.700	34.522	0.100
341.800	22.108	0.100
341.900	33.916	0.100
342.000	44.055	0.100
342.100	22.205	0.100
342.200	35.739	0.100
342.300	40.838	0.100
342.400	25.155	0.100
342.500	22.290	0.100
342.600	36.736	0.100
342.700	32.668	0.100
342.800	57.569	0.100
342.900	36.263	0.100
343.000	29.433	0.099
343.100	42.665	0.100
343.200	37.067	0.100
343.300	36.264	0.100
343.400	30.682	0.100
343.500	63.016	0.100
343.600	35.621	0.100
343.700	25.419	0.100
343.800	36.321	0.100
343.900	41.150	0.100
344.000	32.458	0.100
344.100	39.658	0.100
344.200	46.994	0.100
344.300	39.088	0.100
344.400	50.626	0.100
344.500	26.513	0.100
344.600	47.813	0.100
344.700	53.680	0.100
344.800	39.478	0.100
344.900	25.558	0.100
345.000	38.130	0.100
345.100	44.192	0.100
345.200	37.064	0.100
345.300	50.246	0.100
345.400	43.096	0.100
345.500	37.871	0.100
345.600	49.045	0.099
345.700	41.744	0.100
345.800	41.613	0.100
345.900	44.087	0.100
346.000	40.977	0.100
346.100	33.801	0.100
346.200	50.620	0.100
346.300	29.804	0.100
346.400	44.619	0.100
346.500	54.045	0.100
346.600	37.382	0.100
346.700	40.647	0.100
346.800	43.538	0.100
346.900	38.999	0.100
347.000	32.226	0.100
347.100	51.645	0.100
347.200	59.773	0.100
347.300	48.636	0.100
347.400	41.095	0.100
347.500	42.941	0.100
347.600	41.579	0.100
347.700	50.468	0.100
347.800	49.158	0.100
347.900	24.966	0.100
348.000	45.964	0.100
348.100	49.209	0.100
348.200	49.378	0.100
348.300	57.359	0.100
348.400	38.452	0.100
348.500	45.559	0.099
348.600	49.636	0.100
348.700	44.983	0.100
348.800	62.649	0.100
348.900	33.632	0.100
349.000	63.023	0.100
349.100	49.499	0.100
349.200	56.180	0.100
349.300	53.280	0.100
349.400	40.273	0.100
349.500	51.432	0.100
349.600	53.700	0.100
349.700	40.165	0.100
349.800	39.199	0.100
349.900	41.068	0.100
350.000	47.743	0.100
350.100	43.992	0.100
350.200	37.293	0.100
350.300	55.364	0.100
350.400	59.372	0.100
350.500	52.646	0.100
350.600	48.600	0.100
350.700	54.040	0.100
350.800	48.238	0.100
350.900	59.863	0.100
351.000	43.976	0.099
351.100	62.253	0.100
351.200	63.220	0.100
351.300	43.544	0.100
351.400	50.146	0.100
351.500	32.422	0.100
351.600	42.766	0.100
351.700	53.752	0.100
351.800	54.305	0.100
351.900	33.900	0.100
352.000	37.100	0.100
352.100	40.344	0.100
352.200	65.255	0.100
352.300	59.238	0.100
352.400	54.192	0.100
352.500	46.820	0.100
352.600	50.700	0.100
352.700	61.241	0.100
352.800	55.124	0.100
352.900	57.264	0.100
353.000	60.530	0.100
353.100	52.017	0.100
353.200	48.676	0.100
353.300	67.194	0.100
353.400	55.608	0.100
353.500	46.458	0.100
353.600	47.569	0.100
353.700	39.517	0.100
353.800	52.639	0.099
353.900	55.869	0.100
354.000	38.431	0.100
354.100	64.399	0.100
354.200	35.244	0.100
354.300	49.768	0.100
354.400	48.134	0.100
354.500	55.317	0.100
354.600	61.621	0.100
354.700	42.966	0.100
354.800	57.912	0.100
354.900	56.737	0.100
355.000	66.318	0.100
355.100	41.070	0.100
355.200	72.575	0.100
355.300	51.118	0.100
355.400	59.035	0.100
355.500	66.632	0.100
355.600	57.343	0.100
355.700	50.792	0.100
355.800	52.437	0.100
355.900	61.314	0.100
356.000	46.681	0.100
356.100	45.854	0.100
356.200	45.580	0.100
356.300	65.531	0.100
356.400	64.886	0.100
356.500	50.480	0.099
356.600	41.184	0.100
356.700	47.231	0.100
356.800	57.316	0.099
356.900	61.626	0.100
357.000	48.738	0.100
357.100	61.304	0.100
357.200	45.157	0.100
357.300	49.699	0.100
357.400	67.506	0.100
357.500	64.828	0.100
357.600	50.403	0.100
357.700	54.116	0.100
357.800	57.471	0.100
357.900	44.421	0.100
358.000	39.398	0.100
358.100	49.120	0.100
358.200	56.680	0.100
358.300	64.486	0.100
358.400	48.190	0.100
358.500	78.472	0.100
358.600	63.151	0.100
358.700	47.466	0.100
358.800	45.075	0.100
358.900	47.537	0.099
359.000	68.141	0.100
359.100	60.797	0.099
359.200	52.759	0.100
359.300	53.677	0.100
359.400	36.649	0.100
359.500	62.992	0.100
359.600	65.739	0.100
359.700	57.402	0.099
359.800	60.032	0.100
359.900	62.035	0.100
360.000	73.029	0.100
360.100	74.696	0.100
360.200	49.641	0.100
360.300	64.305	0.100
360.400	71.433	0.100
360.500	58.430	0.100
360.600	57.330	0.100
360.700	50.106	0.100
360.800	73.370	0.100
360.900	58.718	0.100
361.000	52.877	0.100
361.100	71.169	0.100
361.200	66.176	0.100
361.300	62.339	0.100
361.400	49.198	0.100
361.500	62.927	0.099
361.600	61.816	0.100
361.700	58.937	0.100
361.800	59.082	0.100
361.900	63.433	0.100
362.000	53.063	0.100
362.100	51.921	0.099
362.200	55.120	0.100
362.300	70.265	0.100
362.400	69.618	0.100
362.500	65.203	0.100
362.600	49.648	0.100
362.700	67.250	0.100
362.800	64.365	0.100
362.900	65.830	0.100
363.000	65.797	0.100
363.100	59.512	0.099
363.200	62.225	0.100
363.300	57.480	0.100
363.400	64.617	0.100
363.500	51.896	0.100
363.600	66.419	0.100
363.700	63.535	0.100
363.800	52.655	0.100
363.900	79.227	0.099
364.000	70.427	0.099
364.100	65.371	0.100
364.200	42.614	0.100
364.300	74.648	0.100
364.400	60.208	0.100
364.500	59.955	0.099
364.600	65.918	0.099
364.700	64.068	0.100
364.800	62.610	0.100
364.900	59.145	0.100
365.000	57.911	0.100
365.100	69.753	0.099
365.200	49.690	0.100
365.300	68.858	0.099
365.400	62.707	0.100
365.500	69.777	0.100
365.600	66.816	0.100
365.700	63.888	0.100
365.800	64.441	0.099
365.900	67.011	0.099
366.000	60.189	0.100
366.100	63.120	0.100
366.200	73.753	0.100
366.300	39.048	0.100
366.400	71.498	0.100
366.500	68.082	0.100
366.600	78.418	0.100
366.700	63.883	0.100
366.800	64.376	0.100
366.900	63.301	0.100
367.000	71.791	0.100
367.100	74.144	0.100
367.200	70.887	0.100
367.300	67.125	0.100
367.400	58.240	0.100
367.500	64.313	0.100
367.600	52.454	0.100
367.700	64.847	0.100
367.800	74.324	0.100
367.900	66.665	0.100
368.000	63.511	0.100
368.100	53.934	0.100
368.200	61.529	0.100
368.300	50.376	0.100
368.400	71.781	0.099
368.500	75.680	0.100
368.600	73.216	0.100
368.700	69.142	0.100
368.800	81.623	0.099
368.900	62.389	0.100
369.000	65.324	0.100
369.100	61.858	0.100
369.200	73.536	0.100
369.300	73.163	0.100
369.400	86.616	0.100
369.500	66.792	0.100
369.600	63.651	0.100
369.700	65.968	0.100
369.800	54.792	0.100
369.900	64.593	0.100
370.000	72.936	0.100
370.100	69.083	0.100
370.200	54.635	0.100
370.300	68.798	0.100
370.400	68.192	0.100
370.500	82.147	0.100
370.600	62.202	0.100
370.700	66.561	0.100
370.800	72.895	0.100
370.900	78.579	0.100
371.000	72.557	0.100
371.100	64.590	0.100
371.200	64.091	0.100
371.300	76.929	0.100
371.400	59.193	0.100
371.500	67.239	0.100
371.600	74.508	0.100
371.700	67.495	0.100
371.800	61.393	0.100
371.900	56.703	0.100
372.000	73.939	0.100
372.100	80.069	0.100
372.200	62.289	0.100
372.300	62.151	0.100
372.400	56.771	0.100
372.500	51.116	0.099
372.600	74.653	0.100
372.700	60.564	0.100
372.800	70.580	0.100
372.900	64.146	0.100
373.000	69.163	0.099
373.100	58.458	0.100
373.200	75.709	0.100
373.300	68.866	0.100
373.400	73.288	0.100
373.500	77.495	0.099
373.600	75.411	0.100
373.700	59.302	0.100
373.800	64.720	0.100
373.900	73.294	0.100
374.000	82.450	0.100
374.100	69.534	0.100
374.200	61.586	0.100
374.300	77.056	0.100
374.400	57.275	0.100
374.500	66.288	0.100
374.600	67.013	0.100
374.700	63.778	0.099
374.800	56.799	0.100
374.900	72.953	0.100
375.000	66.409	0.100
375.100	78.192	0.099
375.200	73.096	0.100
375.300	71.726	0.100
375.400	74.042	0.099
375.500	59.306	0.100
375.600	71.870	0.100
375.700	62.428	0.099
375.800	67.405	0.100
375.900	90.549	0.100
376.000	55.957	0.100
376.100	60.841	0.099
376.200	77.344	0.100
376.300	68.069	0.100
376.400	73.916	0.100
376.500	65.417	0.100
376.600	85.064	0.100
376.700	62.424	0.100
376.800	65.886	0.100
376.900	80.069	0.100
377.000	82.427	0.100
377.100	68.452	0.100
377.200	66.477	0.100
377.300	79.248	0.099
377.400	56.219	0.100
377.500	69.958	0.099
377.600	74.804	0.100
377.700	60.124	0.100
377.800	68.074	0.100
377.900	59.994	0.099
378.000	66.381	0.100
378.100	78.178	0.099
378.200	62.090	0.099
378.300	71.596	0.099
378.400	75.376	0.099
378.500	81.566	0.100
378.600	57.047	0.099
378.700	62.246	0.100
378.800	77.789	0.100
378.900	80.986	0.100
379.000	71.060	0.100
379.100	74.493	0.100
379.200	65.607	0.100
379.300	82.840	0.099
379.400	76.275	0.100
379.500	70.909	0.100
379.600	73.540	0.099
379.700	74.889	0.100
379.800	60.557	0.099
379.900	67.119	0.099
380.000	75.404	0.100
380.100	73.829	0.100
380.200	74.785	0.100
380.300	69.011	0.099
380.400	60.801	0.100
380.500	41.622	0.100
380.600	74.062	0.100
380.700	100.666	0.100
380.800	71.885	0.100
380.900	72.239	0.099
381.000	65.975	0.099
381.100	89.396	0.100
381.200	76.594	0.099
381.300	69.413	0.100
381.400	69.742	0.100
381.500	53.192	0.100
381.600	72.380	0.100
381.700	74.141	0.100
381.800	69.175	0.100
381.900	71.343	0.099
382.000	76.753	0.100
382.100	68.998	0.099
382.200	56.147	0.100
382.300	68.795	0.100
382.400	75.314	0.099
382.500	62.405	0.099
382.600	84.925	0.100
382.700	71.639	0.100
382.800	69.949	0.100
382.900	72.109	0.100
383.000	60.293	0.100
383.100	74.324	0.099
383.200	73.401	0.100
383.300	70.890	0.099
383.400	62.746	0.100
383.500	86.120	0.100
383.600	59.414	0.100
383.700	61.530	0.100
383.800	86.960	0.100
383.900	59.563	0.100
384.000	84.114	0.100
384.100	79.515	0.100
384.200	53.452	0.100
384.300	69.388	0.099
384.400	73.824	0.100
384.500	57.796	0.100
384.600	64.448	0.099
384.700	85.637	0.100
384.800	68.816	0.100
384.900	69.766	0.100
385.000	87.453	0.100
385.100	60.120	0.100
385.200	65.817	0.100
385.300	67.760	0.100
385.400	73.492	0.100
385.500	64.577	0.099
385.600	75.832	0.100
385.700	58.940	0.100
385.800	59.956	0.100
385.900	64.278	0.100
386.000	63.899	0.099
386.100	76.479	0.099
386.200	73.758	0.099
386.300	71.291	0.100
386.400	65.590	0.100
386.500	73.067	0.100
386.600	74.136	0.100
386.700	65.837	0.100
386.800	65.751	0.100
386.900	80.860	0.100
387.000	57.450	0.100
387.100	72.951	0.100
387.200	56.703	0.100
387.300	60.125	0.100
387.400	75.499	0.100
387.500	70.308	0.100
387.600	65.018	0.100
387.700	55.824	0.100
387.800	57.565	0.100
387.900	72.871	0.100
388.000	71.360	0.100
388.100	70.151	0.100
388.200	69.161	0.100
388.300	56.106	0.100
388.400	57.333	0.100
388.500	94.545	0.100
388.600	53.566	0.100
388.700	78.115	0.100
388.800	67.287	0.100
388.900	67.271	0.100
389.000	73.319	0.100
389.100	76.815	0.100
389.200	84.277	0.100
389.300	63.975	0.100
389.400	73.029	0.100
389.500	77.073	0.100
389.600	64.733	0.100
389.700	69.216	0.100
389.800	70.654	0.100
389.900	57.982	0.100
390.000	48.070	0.100
390.100	46.234	0.100
390.200	34.723	0.100
390.300	31.319	0.100
390.400	29.419	0.100
390.500	11.387	0.100
390.600	12.315	0.100
390.700	18.204	0.100
390.800	-11.377	0.100
390.900	-1.052	0.100
391.000	-1.688	0.100
391.100	8.865	0.100
391.200	-15.396	0.100
391.300	-36.817	0.100
391.400	-21.478	0.100
391.500	-28.862	0.100
391.600	-30.316	0.100
391.700	-22.295	0.100
391.800	-32.503	0.100
391.900	-25.788	0.100
392.000	-14.718	0.100
392.100	-28.082	0.100
392.200	-38.015	0.100
392.300	-35.988	0.100
392.400	-40.960	0.100
392.500	-52.092	0.100
392.600	-60.637	0.100
392.700	-47.714	0.100
392.800	-46.316	0.099
392.900	-33.682	0.100
393.000	-46.473	0.100
393.100	-49.344	0.100
393.200	-47.318	0.100
393.300	-54.379	0.100
393.400	-40.880	0.099
393.500	-42.476	0.100
393.600	-47.007	0.100
393.700	-30.891	0.100
393.800	-35.702	0.100
393.900	-47.949	0.100
394.000	-39.383	0.100
394.100	-55.070	0.100
394.200	-21.573	0.100
394.300	-40.502	0.100
394.400	-43.560	0.100
394.500	-48.066	0.100
394.600	-36.686	0.100
394.700	-55.906	0.100
394.800	-30.479	0.100
394.900	-37.325	0.099
395.000	-32.853	0.099
395.100	-31.705	0.100
395.200	-23.938	0.100
395.300	-50.946	0.100
395.400	-34.280	0.099
395.500	-26.746	0.100
395.600	-20.382	0.099
395.700	-55.896	0.099
395.800	-30.059	0.100
395.900	-29.767	0.100
396.000	-30.411	0.100
396.100	-32.693	0.100
396.200	-29.342	0.100
396.300	-47.166	0.100
396.400	-28.611	0.100
396.500	-32.913	0.100
396.600	-31.733	0.100
396.700	-32.352	0.100
396.800	-31.515	0.100
396.900	-31.225	0.100
397.000	-36.272	0.099
397.100	-32.966	0.100
397.200	-32.482	0.100
397.300	-18.691	0.100
397.400	-36.263	0.100
397.500	-34.577	0.100
397.600	-43.543	0.100
397.700	-9.463	0.100
397.800	-33.577	0.100
397.900	-18.525	0.100
398.000	-24.535	0.100
398.100	-28.210	0.100
398.200	-29.742	0.100
398.300	-38.347	0.100
398.400	-41.856	0.100
398.500	-28.440	0.100
398.600	-20.893	0.100
398.700	-27.689	0.100
398.800	-28.288	0.100
398.900	-36.250	0.100
399.000	-34.920	0.100
399.100	-30.262	0.100
399.200	-39.877	0.100
399.300	-35.741	0.100
399.400	-27.372	0.100
399.500	-32.946	0.100
399.600	-29.898	0.099
399.700	-35.499	0.100
399.800	-13.933	0.100
399.900	-26.772	0.100
400.000	-25.485	0.100
400.100	-38.286	0.100
400.200	-47.694	0.100
400.300	-36.279	0.100
400.400	-21.133	0.100
400.500	-26.041	0.100
400.600	-52.992	0.099
400.700	-34.145	0.100
400.800	-33.350	0.100
400.900	-22.794	0.100
401.000	-26.481	0.100
401.100	-28.706	0.100
401.200	-28.716	0.100
401.300	-36.591	0.100
401.400	-34.042	0.100
401.500	-30.009	0.100
401.600	-29.891	0.100
401.700	-35.734	0.100
401.800	-24.269	0.100
401.900	-32.594	0.100
402.000	-33.671	0.100
402.100	-19.387	0.100
402.200	-30.219	0.099
402.300	-29.221	0.099
402.400	-34.591	0.099
402.500	-33.098	0.100
402.600	-14.441	0.100
402.700	-23.282	0.100
402.800	-12.717	0.100
402.900	-29.304	0.100
403.000	-35.987	0.100
403.100	-25.549	0.100
403.200	-30.580	0.100
403.300	-30.350	0.100
403.400	-42.983	0.100
403.500	-43.766	0.100
403.600	-24.875	0.100
403.700	-35.311	0.100
403.800	-40.636	0.100
403.900	-30.311	0.099
404.000	-37.715	0.100
404.100	-12.860	0.100
404.200	-29.112	0.100
404.300	-17.337	0.100
404.400	-39.634	0.100
404.500	-17.897	0.100
404.600	-36.449	0.100
404.700	-43.607	0.099
404.800	-16.397	0.100
404.900	-29.770	0.100
405.000	-21.225	0.100
405.100	-32.274	0.100
405.200	-23.687	0.099
405.300	-36.251	0.099
405.400	-29.579	0.100
405.500	-18.995	0.100
405.600	-35.810	0.099
405.700	-32.298	0.099
405.800	-17.151	0.100
405.900	-35.479	0.100
406.000	-29.712	0.099
406.100	-30.896	0.100
406.200	-35.375	0.100
406.300	-31.598	0.100
406.400	-15.785	0.100
406.500	-43.841	0.100
406.600	-49.187	0.099
406.700	-29.321	0.100
406.800	-42.976	0.100
406.900	-29.826	0.099
407.000	-12.705	0.099
407.100	-35.145	0.100
407.200	-37.746	0.099
407.300	-31.095	0.099
407.400	-35.177	0.100
407.500	-38.244	0.100
407.600	-39.466	0.099
407.700	-11.171	0.099
407.800	-35.903	0.099
407.900	-35.269	0.100
408.000	-29.286	0.100
408.100	-31.366	0.099
408.200	-30.039	0.100
408.300	-26.105	0.100
408.400	-35.478	0.099
408.500	-25.106	0.099
408.600	-39.992	0.100
408.700	-39.887	0.099
408.800	-18.195	0.100
408.900	-35.485	0.100
409.000	-22.928	0.100
409.100	-29.950	0.100
409.200	-23.552	0.099
409.300	-28.870	0.100
409.400	-25.860	0.100
409.500	-26.253	0.100
409.600	-33.142	0.100
409.700	-24.948	0.100
409.800	-30.051	0.100
409.900	-28.151	0.099
410.000	-40.244	0.099
410.100	-26.652	0.099
410.200	-26.871	0.099
410.300	-37.525	0.100
410.400	-24.851	0.099
410.500	-39.817	0.100
410.600	-26.235	0.099
410.700	-15.433	0.100
410.800	-26.530	0.100
410.900	-25.541	0.100
411.000	-35.554	0.100
411.100	-22.346	0.099
411.200	-39.845	0.100
411.300	-11.121	0.100
411.400	-39.850	0.100
411.500	-36.548	0.100
411.600	-33.123	0.099
411.700	-37.061	0.100
411.800	-20.569	0.100
411.900	-26.956	0.100
412.000	-44.258	0.100
412.100	-20.765	0.099
412.200	-31.227	0.099
412.300	-15.173	0.100
412.400	-32.336	0.100
412.500	-17.003	0.100
412.600	-26.595	0.100
412.700	-32.567	0.100
412.800	-26.802	0.100
412.900	-46.924	0.100
413.000	-27.670	0.099
413.100	-31.754	0.100
413.200	-28.582	0.100
413.300	-34.069	0.100
413.400	-28.033	0.099
413.500	-40.677	0.100
413.600	-24.837	0.099
413.700	-20.968	0.100
413.800	-39.021	0.099
413.900	-26.154	0.100
414.000	-19.655	0.100
414.100	-43.886	0.100
414.200	-40.684	0.099
414.300	-18.584	0.099
414.400	-22.944	0.100
414.500	-39.586	0.099
414.600	-19.121	0.099
414.700	-47.973	0.099
414.800	-24.434	0.100
414.900	-36.099	0.099
415.000	-19.521	0.100
415.100	-26.954	0.100
415.200	-37.229	0.099
415.300	-35.662	0.100
415.400	-19.642	0.100
415.500	-41.011	0.100
415.600	-19.931	0.100
415.700	-10.113	0.100
415.800	-33.393	0.100
415.900	-38.190	0.100
416.000	-37.035	0.100
416.100	-27.843	0.099
416.200	-26.124	0.100
416.300	-31.083	0.100
416.400	-21.701	0.100
416.500	-27.264	0.100
416.600	-35.828	0.099
416.700	-29.333	0.100
416.800	-23.340	0.100
416.900	-25.634	0.100
417.000	-31.286	0.099
417.100	-42.256	0.100
417.200	-25.120	0.100
417.300	-20.797	0.099
417.400	-35.855	0.100
417.500	-40.236	0.099
417.600	-30.751	0.100
417.700	-32.826	0.100
417.800	-40.119	0.099
417.900	-22.874	0.099
418.000	-15.791	0.099
418.100	-8.569	0.100
418.200	-45.996	0.100
418.300	-23.391	0.100
418.400	-34.633	0.100
418.500	-23.195	0.100
418.600	-25.035	0.100
418.700	-43.233	0.100
418.800	-27.614	0.100
418.900	-17.866	0.100
419.000	-20.353	0.100
419.100	-26.716	0.100
419.200	-26.859	0.100
419.300	-28.781	0.100
419.400	-29.440	0.100
419.500	-44.116	0.100
419.600	-39.241	0.100
419.700	-39.329	0.100
419.800	-23.185	0.100
419.900	-28.337	0.099
420.000	-28.297	0.100
420.100	-22.601	0.099
420.200	-16.672	0.100
420.300	-34.169	0.100
420.400	-27.869	0.100
420.500	-44.559	0.100
420.600	-47.219	0.100
420.700	-22.569	0.100
420.800	-22.542	0.100
420.900	-28.653	0.100
421.000	-31.234	0.100
421.100	-27.254	0.100
421.200	-23.619	0.100
421.300	-19.545	0.099
421.400	-40.002	0.100
421.500	-19.681	0.100
421.600	-16.537	0.100
421.700	-48.994	0.099
421.800	-22.819	0.099
421.900	-36.410	0.100
422.000	-32.185	0.100
422.100	-43.530	0.100
422.200	-23.910	0.100
422.300	-30.843	0.100
422.400	-19.206	0.100
422.500	-18.125	0.100
422.600	-32.025	0.100
422.700	-40.888	0.100
422.800	-36.330	0.100
422.900	-20.874	0.100
423.000	-36.535	0.100
423.100	-32.996	0.100
423.200	-24.498	0.100
423.300	-21.732	0.100
423.400	-29.845	0.100
423.500	-36.132	0.100
423.600	-29.304	0.100
423.700	-16.335	0.100
423.800	-33.127	0.100
423.900	-32.744	0.100
424.000	-22.222	0.100
424.100	-41.355	0.100
424.200	-41.134	0.100
424.300	-35.821	0.099
424.400	-8.988	0.100
424.500	-18.016	0.100
424.600	-38.961	0.100
424.700	-27.820	0.100
424.800	-37.125	0.099
424.900	-30.226	0.100
425.000	-28.364	0.099
425.100	-49.965	0.100
425.200	-30.714	0.100
425.300	-14.187	0.099
425.400	-25.813	0.100
425.500	-28.217	0.100
425.600	-21.139	0.100
425.700	-38.526	0.100
425.800	-31.920	0.100
425.900	-31.508	0.100
426.000	-19.485	0.100
426.100	-19.975	0.099
426.200	-21.362	0.100
426.300	-29.670	0.100
426.400	-35.234	0.100
426.500	-25.490	0.099
426.600	-37.178	0.100
426.700	-11.027	0.099
426.800	-30.410	0.100
426.900	-45.883	0.099
427.000	-22.199	0.100
427.100	-18.083	0.100
427.200	-41.901	0.100
427.300	-25.556	0.100
427.400	-21.732	0.100
427.500	-45.950	0.099
427.600	-18.684	0.100
427.700	-23.855	0.100
427.800	-44.856	0.100
427.900	-27.416	0.100
428.000	-31.450	0.100
428.100	-17.529	0.100
428.200	-30.691	0.099
428.300	-33.603	0.100
428.400	-37.691	0.100
428.500	-26.308	0.100
428.600	-39.853	0.100
428.700	-17.549	0.100
428.800	-36.300	0.100
428.900	-20.256	0.099
429.000	-16.544	0.100
429.100	-10.743	0.100
429.200	-27.305	0.100
429.300	-34.444	0.100
429.400	-25.025	0.100
429.500	-28.023	0.100
429.600	-24.436	0.100
429.700	-12.545	0.099
429.800	-37.610	0.100
429.900	-27.151	0.100
430.000	-15.734	0.100
430.100	-20.602	0.100
430.200	-39.014	0.100
430.300	-37.890	0.100
430.400	-32.130	0.100
430.500	-14.970	0.100
430.600	-36.333	0.100
430.700	-31.319	0.100
430.800	-24.859	0.100
430.900	-29.318	0.100
431.000	-21.987	0.099
431.100	-7.127	0.100
431.200	-21.487	0.100
431.300	-44.856	0.100
431.400	-34.930	0.100
431.500	-23.840	0.100
431.600	-25.054	0.100
431.700	-10.262	0.100
431.800	-39.252	0.100
431.900	-28.971	0.100
432.000	-34.871	0.100
432.100	-14.765	0.100
432.200	-24.282	0.100
432.300	-21.740	0.100
432.400	-28.020	0.100
432.500	-38.413	0.100
432.600	-34.652	0.100
432.700	-29.782	0.100
432.800	-43.223	0.100
432.900	-31.930	0.100
433.000	-23.494	0.100
433.100	-24.486	0.100
433.200	-34.293	0.100
433.300	-24.406	0.100
433.400	-17.098	0.100
433.500	-26.148	0.100
433.600	-23.356	0.100
433.700	-28.292	0.100
433.800	-16.991	0.100
433.900	-27.803	0.100
434.000	-14.581	0.100
434.100	-30.467	0.100
434.200	-23.329	0.100
434.300	-46.788	0.100
434.400	-42.010	0.100
434.500	-23.100	0.100
434.600	-21.488	0.100
434.700	-19.225	0.100
434.800	-22.746	0.099
434.900	-38.285	0.100
435.000	-16.552	0.100
435.100	-19.660	0.100
435.200	-29.684	0.100
435.300	-29.786	0.100
435.400	-47.886	0.100
435.500	-28.064	0.100
435.600	-39.256	0.100
435.700	-22.476	0.100
435.800	-41.373	0.100
435.900	-21.200	0.100
436.000	-24.745	0.100
436.100	-39.728	0.099
436.200	-35.787	0.100
436.300	-38.541	0.100
436.400	-30.416	0.100
436.500	-31.402	0.100
436.600	-9.462	0.100
436.700	-15.413	0.100
436.800	-31.837	0.099
436.900	-21.843	0.100
437.000	-23.363	0.100
437.100	-23.060	0.100
437.200	-26.133	0.100
437.300	-17.571	0.100
437.400	-33.466	0.100
437.500	-36.268	0.100
437.600	-23.983	0.099
437.700	-14.598	0.100
437.800	-29.502	0.100
437.900	-9.996	0.100
438.000	-27.580	0.100
438.100	-25.545	0.100
438.200	-22.140	0.100
438.300	-23.359	0.100
438.400	-20.106	0.100
438.500	-34.938	0.100
438.600	-30.384	0.100
438.700	-34.787	0.100
438.800	-29.979	0.100
438.900	-30.421	0.100
439.000	-27.085	0.100
439.100	-27.686	0.100
439.200	-35.790	0.100
439.300	-11.848	0.100
439.400	-21.092	0.100
439.500	-23.907	0.100
439.600	-18.344	0.100
439.700	-20.332	0.100
439.800	-27.486	0.100
439.900	-25.525	0.100
440.000	-34.499	0.100
440.100	-7.322	0.100
440.200	-20.562	0.100
440.300	-39.185	0.100
440.400	-16.770	0.100
440.500	-18.079	0.100
440.600	-30.230	0.100
440.700	-29.673	0.100
440.800	-21.909	0.100
440.900	-37.121	0.100
441.000	-27.060	0.100
441.100	-22.967	0.100
441.200	-28.444	0.100
441.300	-40.557	0.100
441.400	-42.007	0.100
441.500	-18.327	0.100
441.600	-34.479	0.100
441.700	-27.445	0.100
441.800	-17.001	0.100
441.900	-21.800	0.100
442.000	-29.481	0.100
442.100	-29.929	0.100
442.200	-23.149	0.100
442.300	-18.595	0.100
442.400	-32.466	0.100
442.500	-19.731	0.100
442.600	-40.067	0.100
442.700	-25.940	0.100
442.800	-25.854	0.100
442.900	-21.631	0.100
443.000	-35.748	0.100
443.100	-1.091	0.100
443.200	-11.101	0.100
443.300	-26.600	0.100
443.400	-41.306	0.100
443.500	-22.718	0.100
443.600	-12.956	0.100
443.700	-42.332	0.100
443.800	-27.925	0.100
443.900	-17.731	0.100
444.000	-24.797	0.100
444.100	-19.770	0.100
444.200	-17.851	0.100
444.300	-28.465	0.100
444.400	-31.463	0.100
444.500	-24.084	0.100
444.600	-28.004	0.100
444.700	-35.773	0.100
444.800	-30.262	0.100
444.900	-22.577	0.100
445.000	-33.594	0.100
445.100	-33.202	0.100
445.200	-29.152	0.100
445.300	-29.800	0.100
445.400	-36.768	0.100
445.500	-22.655	0.100
445.600	-16.239	0.100
445.700	-28.665	0.100
445.800	-31.413	0.100
445.900	-24.131	0.100
446.000	-23.533	0.100
446.100	-29.900	0.100
446.200	-17.003	0.100
446.300	-32.594	0.100
446.400	-36.598	0.099
446.500	-25.643	0.099
446.600	-13.819	0.100
446.700	-18.814	0.100
446.800	-37.113	0.100
446.900	-25.232	0.100
447.000	-39.795	0.100
447.100	-35.376	0.100
447.200	-19.078	0.100
447.300	-31.736	0.100
447.400	-38.930	0.100
447.500	-25.244	0.100
447.600	-35.074	0.100
447.700	-13.181	0.100
447.800	-24.233	0.100
447.900	-35.641	0.100
448.000	-20.257	0.100
448.100	-27.736	0.100
448.200	-32.030	0.100
448.300	-16.844	0.100
448.400	-50.475	0.100
448.500	-34.335	0.100
448.600	-3.314	0.100
448.700	-40.968	0.100
448.800	-26.487	0.100
448.900	-16.212	0.100
449.000	-24.073	0.100
449.100	-11.267	0.100
449.200	-10.728	0.100
449.300	-33.611	0.100
449.400	-27.068	0.100
449.500	-14.032	0.100
449.600	-21.632	0.100
449.700	-25.174	0.100
449.800	-26.128	0.100
449.900	-29.363	0.100
450.000	-36.352	0.100
450.100	-28.520	0.100
450.200	-21.117	0.100
450.300	-19.101	0.100
450.400	-23.518	0.100
450.500	-26.190	0.100
450.600	-24.119	0.100
450.700	-16.126	0.100
450.800	-41.314	0.100
450.900	-40.802	0.100
451.000	-41.588	0.100
451.100	-9.371	0.100
451.200	-20.590	0.100
451.300	-18.055	0.100
451.400	-17.647	0.100
451.500	-33.759	0.100
451.600	-26.382	0.100
451.700	-21.911	0.100
451.800	-30.236	0.100
451.900	-30.409	0.100
452.000	-2.420	0.100
452.100	-21.167	0.099
452.200	-35.940	0.100
452.300	-12.421	0.100
452.400	-37.950	0.100
452.500	-20.138	0.100
452.600	-24.916	0.099
452.700	-21.676	0.100
452.800	-26.870	0.100
452.900	-34.827	0.100
453.000	-15.302	0.100
453.100	-35.738	0.100
453.200	-28.999	0.100
453.300	-5.297	0.100
453.400	-10.794	0.100
453.500	-29.965	0.100
453.600	-24.313	0.100
453.700	-16.126	0.100
453.800	-10.835	0.100
453.900	-43.199	0.100
454.000	-47.273	0.100
454.100	-18.588	0.100
454.200	-31.764	0.100
454.300	-36.189	0.100
454.400	-33.456	0.100
454.500	-13.928	0.100
454.600	-12.703	0.100
454.700	-37.286	0.100
454.800	-30.574	0.100
454.900	-28.002	0.100
455.000	-14.308	0.100
455.100	-18.964	0.100
455.200	-18.741	0.100
455.300	-21.646	0.100
455.400	-22.138	0.100
455.500	-27.810	0.100
455.600	-27.911	0.100
455.700	-10.370	0.100
455.800	-26.822	0.100
455.900	-28.541	0.100
456.000	-21.402	0.100
456.100	-18.857	0.100
456.200	-23.583	0.100
456.300	-33.274	0.100
456.400	-21.976	0.100
456.500	-18.502	0.100
456.600	-23.728	0.100
456.700	-22.165	0.100
456.800	-19.574	0.100
456.900	-12.852	0.100
457.000	-29.862	0.100
457.100	-28.790	0.100
457.200	-21.206	0.100
457.300	-31.309	0.100
457.400	-36.025	0.100
457.500	-31.593	0.100
457.600	-8.206	0.100
457.700	-38.552	0.100
457.800	-22.744	0.100
457.900	-31.758	0.100
458.000	-25.774	0.100
458.100	-12.014	0.100
458.200	-40.615	0.100
458.300	-12.611	0.100
458.400	-15.091	0.100
458.500	-4.640	0.100
458.600	-43.501	0.100
458.700	-27.229	0.100
458.800	-17.215	0.100
458.900	-35.604	0.100
459.000	-17.610	0.100
459.100	-32.262	0.100
459.200	-37.241	0.100
459.300	-31.619	0.100
459.400	-22.450	0.100
459.500	-36.256	0.100
459.600	-17.422	0.100
459.700	2.905	0.099
459.800	-31.216	0.100
459.900	-27.553	0.100
460.000	-13.233	0.100
460.100	-36.824	0.100
460.200	-15.502	0.100
460.300	-24.241	0.100
460.400	-20.326	0.100
460.500	-29.424	0.100
460.600	-15.019	0.100
460.700	-23.959	0.100
460.800	-23.209	0.100
460.900	-19.304	0.100
461.000	-34.364	0.100
461.100	-31.400	0.100
461.200	-16.510	0.100
461.300	-38.098	0.100
461.400	-18.863	0.100
461.500	-21.929	0.100
461.600	-19.068	0.100
461.700	-31.964	0.100
461.800	-38.965	0.100
461.900	-9.180	0.100
462.000	-10.286	0.100
462.100	-20.773	0.100
462.200	-16.984	0.100
462.300	-22.096	0.100
462.400	-12.444	0.100
462.500	-28.206	0.100
462.600	-21.068	0.100
462.700	-33.079	0.100
462.800	-19.056	0.100
462.900	-23.772	0.100
463.000	-23.108	0.100
463.100	-13.105	0.100
463.200	-33.947	0.100
463.300	-34.347	0.100
463.400	-8.436	0.100
463.500	-35.151	0.100
463.600	-12.635	0.100
463.700	-22.369	0.100
463.800	-46.550	0.100
463.900	-7.163	0.100
464.000	-27.592	0.100
464.100	-21.797	0.100
464.200	-27.166	0.100
464.300	-22.717	0.100
464.400	-26.819	0.100
464.500	-14.244	0.100
464.600	-24.940	0.100
464.700	-20.507	0.100
464.800	-16.436	0.100
464.900	-28.269	0.100
465.000	-22.904	0.100
465.100	-27.437	0.100
465.200	-24.327	0.100
465.300	-26.897	0.100
465.400	-22.557	0.100
465.500	-29.221	0.100
465.600	-27.646	0.100
465.700	-39.441	0.100
465.800	-26.151	0.100
465.900	-20.941	0.100
466.000	-18.137	0.100
466.100	-27.862	0.100
466.200	-28.380	0.100
466.300	-31.438	0.100
466.400	-22.440	0.100
466.500	-12.151	0.100
466.600	-12.971	0.100
466.700	-15.011	0.100
466.800	-54.953	0.100
466.900	-20.076	0.100
467.000	-30.257	0.100
467.100	-38.837	0.099
467.200	-17.392	0.100
467.300	-9.644	0.100
467.400	-20.280	0.100
467.500	-29.725	0.100
467.600	-17.337	0.100
467.700	-15.508	0.100
467.800	-27.530	0.100
467.900	-24.444	0.100
468.000	-29.798	0.100
468.100	-27.726	0.100
468.200	-6.344	0.100
468.300	-13.737	0.100
468.400	-23.686	0.100
468.500	-34.279	0.100
468.600	-29.887	0.100
468.700	-17.167	0.100
468.800	-22.598	0.100
468.900	-31.637	0.100
469.000	-32.152	0.100
469.100	-12.756	0.100
469.200	-12.179	0.100
469.300	-24.096	0.100
469.400	-13.958	0.100
469.500	-20.405	0.100
469.600	-32.443	0.100
469.700	-17.747	0.100
469.800	-28.802	0.100
469.900	-26.463	0.100
470.000	-16.110	0.100
470.100	-19.325	0.100
470.200	-3.827	0.100
470.300	-35.304	0.100
470.400	-17.086	0.100
470.500	-37.679	0.100
470.600	-20.526	0.100
470.700	-16.082	0.100
470.800	-29.561	0.100
470.900	-25.434	0.100
471.000	-22.704	0.100
471.100	-17.715	0.100
471.200	-16.901	0.100
471.300	-40.363	0.100
471.400	-9.525	0.100
471.500	-38.435	0.100
471.600	-22.615	0.100
471.700	-37.531	0.100
471.800	-11.494	0.100
471.900	-27.884	0.100
472.000	-9.947	0.100
472.100	-27.418	0.100
472.200	-6.912	0.100
472.300	-30.432	0.100
472.400	-31.826	0.100
472.500	-19.551	0.100
472.600	-41.120	0.100
472.700	-17.466	0.100
472.800	-22.042	0.100
472.900	-32.255	0.100
473.000	-26.191	0.100
473.100	-10.046	0.100
473.200	-28.618	0.100
473.300	-21.556	0.100
473.400	-33.933	0.100
473.500	-32.471	0.100
473.600	3.033	0.100
473.700	-31.032	0.100
473.800	-30.436	0.100
473.900	-15.760	0.100
474.000	-33.451	0.100
474.100	-14.877	0.100
474.200	-19.931	0.100
474.300	-13.537	0.100
474.400	-33.693	0.100
474.500	-21.619	0.100
474.600	-33.394	0.100
474.700	-28.495	0.100
474.800	-18.543	0.100
474.900	-34.184	0.100
475.000	-27.846	0.100
475.100	-17.285	0.100
475.200	-11.094	0.100
475.300	-9.837	0.100
475.400	-12.619	0.100
475.500	-21.733	0.100
475.600	-22.060	0.100
475.700	-21.205	0.100
475.800	-28.117	0.100
475.900	-24.619	0.100
476.000	-15.173	0.100
476.100	-18.316	0.100
476.200	-21.377	0.100
476.300	-23.995	0.100
476.400	-23.604	0.100
476.500	-26.661	0.100
476.600	-25.121	0.100
476.700	-25.213	0.100
476.800	-21.475	0.100
476.900	-5.319	0.100
477.000	-34.437	0.100
477.100	-24.870	0.100
477.200	-23.588	0.100
477.300	-21.661	0.100
477.400	-11.100	0.100
477.500	-30.291	0.100
477.600	-28.434	0.100
477.700	-25.127	0.100
477.800	-21.733	0.100
477.900	-20.188	0.100
478.000	-33.919	0.099
478.100	-1.287	0.100
478.200	-20.195	0.100
478.300	-21.618	0.100
478.400	-19.471	0.100
478.500	-18.789	0.100
478.600	-29.950	0.100
478.700	-23.602	0.100
478.800	-42.990	0.100
478.900	-33.328	0.100
479.000	-19.400	0.100
479.100	-21.226	0.100
479.200	-37.215	0.100
479.300	-18.816	0.099
479.400	-29.225	0.099
479.500	-7.835	0.100
479.600	-4.675	0.100
479.700	-14.730	0.099
479.800	-37.207	0.100
479.900	-21.989	0.100
480.000	-5.943	0.100
480.100	0.970	0.100
480.200	7.102	0.100
480.300	10.993	0.100
480.400	22.333	0.100
480.500	11.956	0.100
480.600	23.120	0.100
480.700	21.222	0.099
480.800	20.534	0.100
480.900	32.258	0.100
481.000	10.385	0.099
481.100	12.702	0.099
481.200	31.498	0.100
481.300	20.299	0.100
481.400	13.504	0.100
481.500	18.785	0.100
481.600	25.913	0.100
481.700	26.741	0.100
481.800	19.913	0.100
481.900	3.185	0.099
482.000	36.612	0.100
482.100	19.524	0.100
482.200	17.779	0.100
482.300	11.332	0.100
482.400	17.335	0.099
482.500	29.824	0.100
482.600	20.129	0.100
482.700	4.613	0.100
482.800	33.516	0.100
482.900	10.547	0.100
483.000	13.238	0.099
483.100	24.351	0.100
483.200	11.287	0.100
483.300	16.174	0.100
483.400	11.324	0.099
483.500	22.401	0.100
483.600	16.958	0.100
483.700	-0.290	0.100
483.800	-1.705	0.100
483.900	19.192	0.100
484.000	12.297	0.100
484.100	0.239	0.099
484.200	19.120	0.100
484.300	10.112	0.100
484.400	19.821	0.100
484.500	9.061	0.100
484.600	17.404	0.100
484.700	9.624	0.100
484.800	5.819	0.100
484.900	7.878	0.100
485.000	15.719	0.099
485.100	11.492	0.099
485.200	16.464	0.100
485.300	6.146	0.099
485.400	15.898	0.099
485.500	27.553	0.100
485.600	18.927	0.100
485.700	1.737	0.100
485.800	8.855	0.100
485.900	28.707	0.100
486.000	20.490	0.099
486.100	26.773	0.100
486.200	14.455	0.100
486.300	14.694	0.099
486.400	19.289	0.100
486.500	11.825	0.100
486.600	10.611	0.100
486.700	5.509	0.100
486.800	12.355	0.100
486.900	21.483	0.100
487.000	41.512	0.100
487.100	19.837	0.099
487.200	7.384	0.100
487.300	32.017	0.100
487.400	23.286	0.100
487.500	15.283	0.099
487.600	25.755	0.100
487.700	21.139	0.100
487.800	27.690	0.099
487.900	17.280	0.100
488.000	27.619	0.100
488.100	11.927	0.100
488.200	16.648	0.100
488.300	60.716	0.100
488.400	22.641	0.100
488.500	19.533	0.100
488.600	27.930	0.100
488.700	24.389	0.100
488.800	30.025	0.100
488.900	37.020	0.100
489.000	33.598	0.100
489.100	29.248	0.100
489.200	32.103	0.100
489.300	16.602	0.100
489.400	26.224	0.100
489.500	27.449	0.100
489.600	28.792	0.100
489.700	25.050	0.100
489.800	32.342	0.100
489.900	31.588	0.100
490.000	30.576	0.100
490.100	28.026	0.100
490.200	25.942	0.100
490.300	38.599	0.100
490.400	36.176	0.100
490.500	30.805	0.100
490.600	24.906	0.100
490.700	35.916	0.100
490.800	36.828	0.100
490.900	30.516	0.100
491.000	36.452	0.100
491.100	37.619	0.100
491.200	23.983	0.100
491.300	39.845	0.100
491.400	29.907	0.100
491.500	34.188	0.100
491.600	26.136	0.100
491.700	38.123	0.100
491.800	45.575	0.099
491.900	32.749	0.100
492.000	40.423	0.100
492.100	33.751	0.100
492.200	37.783	0.100
492.300	42.812	0.100
492.400	26.583	0.100
492.500	41.647	0.100
492.600	23.803	0.100
492.700	31.737	0.100
492.800	33.193	0.100
492.900	43.973	0.100
493.000	46.699	0.100
493.100	36.285	0.100
493.200	20.816	0.100
493.300	33.176	0.100
493.400	35.858	0.100
493.500	39.892	0.099
493.600	38.184	0.100
493.700	45.777	0.100
493.800	31.210	0.100
493.900	37.119	0.099
494.000	57.937	0.099
494.100	39.945	0.100
494.200	42.407	0.100
494.300	49.999	0.100
494.400	44.872	0.100
494.500	21.018	0.099
494.600	40.814	0.099
494.700	51.914	0.099
494.800	40.317	0.099
494.900	27.351	0.099
495.000	55.651	0.099
495.100	29.809	0.100
495.200	45.307	0.099
495.300	34.086	0.099
495.400	45.249	0.100
495.500	56.876	0.099
495.600	37.391	0.099
495.700	47.353	0.100
495.800	42.920	0.100
495.900	45.760	0.099
496.000	58.519	0.099
496.100	41.120	0.099
496.200	24.065	0.100
496.300	51.589	0.099
496.400	60.068	0.100
496.500	41.924	0.099
496.600	36.358	0.100
496.700	52.173	0.100
496.800	33.888	0.099
496.900	38.612	0.099
497.000	46.630	0.099
497.100	53.544	0.100
497.200	50.337	0.099
497.300	40.213	0.099
497.400	52.518	0.099
497.500	51.498	0.100
497.600	43.964	0.100
497.700	52.922	0.100
497.800	50.816	0.100
497.900	30.929	0.100
498.000	59.207	0.100
498.100	35.685	0.099
498.200	62.274	0.100
498.300	48.371	0.099
498.400	51.600	0.099
498.500	43.200	0.100
498.600	55.023	0.100
498.700	33.511	0.100
498.800	33.617	0.100
498.900	50.336	0.100
499.000	54.365	0.100
499.100	38.172	0.100
499.200	41.461	0.100
499.300	73.852	0.100
499.400	51.948	0.099
499.500	41.968	0.100
499.600	60.790	0.100
499.700	53.084	0.100
499.800	56.195	0.100
499.900	23.268	0.100
500.000	60.281	0.100
500.100	55.321	0.100
500.200	36.519	0.100
500.300	47.582	0.100
500.400	40.236	0.099
500.500	43.977	0.100
500.600	56.854	0.100
500.700	53.356	0.100
500.800	58.922	0.099
500.900	53.777	0.100
501.000	62.371	0.100
501.100	60.087	0.100
501.200	52.829	0.100
501.300	42.533	0.100
501.400	53.390	0.100
501.500	54.871	0.100
501.600	53.624	0.100
501.700	53.157	0.100
501.800	45.682	0.100
501.900	58.088	0.100
502.000	66.867	0.100
502.100	50.938	0.100
502.200	45.822	0.100
502.300	44.982	0.100
502.400	70.352	0.099
502.500	56.352	0.100
502.600	56.593	0.100
502.700	50.942	0.100
502.800	54.042	0.100
502.900	57.151	0.100
503.000	54.058	0.100
503.100	48.162	0.100
503.200	56.876	0.100
503.300	41.256	0.100
503.400	47.129	0.099
503.500	65.499	0.100
503.600	44.466	0.099
503.700	49.385	0.100
503.800	48.513	0.100
503.900	69.014	0.100
504.000	44.323	0.100
504.100	44.945	0.100
504.200	37.316	0.100
504.300	54.530	0.100
504.400	58.719	0.100
504.500	49.587	0.100
504.600	53.109	0.100
504.700	49.213	0.100
504.800	53.326	0.100
504.900	59.274	0.100
505.000	56.161	0.100
505.100	40.262	0.099
505.200	55.069	0.100
505.300	36.859	0.100
505.400	50.837	0.100
505.500	56.294	0.100
505.600	46.800	0.099
505.700	68.598	0.100
505.800	54.273	0.100
505.900	65.720	0.100
506.000	57.180	0.100
506.100	37.962	0.099
506.200	43.992	0.100
506.300	69.446	0.100
506.400	53.929	0.100
506.500	64.569	0.100
506.600	35.924	0.100
506.700	59.024	0.100
506.800	52.104	0.100
506.900	50.855	0.100
507.000	45.894	0.100
507.100	56.443	0.100
507.200	57.964	0.100
507.300	37.528	0.100
507.400	57.873	0.100
507.500	58.560	0.100
507.600	63.544	0.100
507.700	51.355	0.100
507.800	54.218	0.100
507.900	58.372	0.100
508.000	60.971	0.100
508.100	67.635	0.099
508.200	48.686	0.100
508.300	58.464	0.100
508.400	60.839	0.100
508.500	60.161	0.100
508.600	59.969	0.099
508.700	49.381	0.099
508.800	60.155	0.099
508.900	56.011	0.099
509.000	55.626	0.100
509.100	66.820	0.100
509.200	67.684	0.099
509.300	60.090	0.100
509.400	63.300	0.100
509.500	60.289	0.099
509.600	50.599	0.099
509.700	65.398	0.099
509.800	56.451	0.100
509.900	55.596	0.100
510.000	64.836	0.099
510.100	41.974	0.099
510.200	52.305	0.100
510.300	59.540	0.100
510.400	48.956	0.099
510.500	66.232	0.100
510.600	59.427	0.099
510.700	63.116	0.099
510.800	70.464	0.100
510.900	67.059	0.099
511.000	48.289	0.100
511.100	70.147	0.100
511.200	42.843	0.099
511.300	70.299	0.099
511.400	57.180	0.100
511.500	63.473	0.100
511.600	57.000	0.099
511.700	49.666	0.100
511.800	69.276	0.099
511.900	65.232	0.099
512.000	59.023	0.099
512.100	59.130	0.100
512.200	65.253	0.100
512.300	62.173	0.100
512.400	64.612	0.100
512.500	66.199	0.100
512.600	64.530	0.100
512.700	60.656	0.100
512.800	54.214	0.100
512.900	63.748	0.100
513.000	39.651	0.100
513.100	77.619	0.099
513.200	62.890	0.100
513.300	50.829	0.099
513.400	93.816	0.100
513.500	42.073	0.100
513.600	83.855	0.100
513.700	71.935	0.100
513.800	57.625	0.099
513.900	61.568	0.100
514.000	55.375	0.100
514.100	73.437	0.100
514.200	61.505	0.100
514.300	72.264	0.099
514.400	61.120	0.100
514.500	46.406	0.100
514.600	67.067	0.099
514.700	76.217	0.099
514.800	48.228	0.100
514.900	67.310	0.099
515.000	67.543	0.100
515.100	73.145	0.100
515.200	65.082	0.099
515.300	73.460	0.100
515.400	71.614	0.100
515.500	67.136	0.100
515.600	63.112	0.100
515.700	67.991	0.100
515.800	42.690	0.100
515.900	64.370	0.100
516.000	60.839	0.100
516.100	57.991	0.100
516.200	60.889	0.099
516.300	76.974	0.100
516.400	65.218	0.100
516.500	43.303	0.099
516.600	89.863	0.099
516.700	69.950	0.100
516.800	54.948	0.099
516.900	62.455	0.100
517.000	59.770	0.099
517.100	53.469	0.100
517.200	55.640	0.099
517.300	75.450	0.100
517.400	55.512	0.100
517.500	59.526	0.099
517.600	54.120	0.100
517.700	70.985	0.100
517.800	53.792	0.100
517.900	68.106	0.100
518.000	55.883	0.099
518.100	70.188	0.100
518.200	88.747	0.100
518.300	61.668	0.100
518.400	64.054	0.100
518.500	60.979	0.100
518.600	58.159	0.099
518.700	76.449	0.099
518.800	60.595	0.099
518.900	65.725	0.100
519.000	62.721	0.099
519.100	69.525	0.100
519.200	68.076	0.100
519.300	89.120	0.099
519.400	58.748	0.100
519.500	64.432	0.100
519.600	72.986	0.100
519.700	64.671	0.100
519.800	74.317	0.100
519.900	66.436	0.100
520.000	79.937	0.100
520.100	62.879	0.100
520.200	66.745	0.100
520.300	75.735	0.099
520.400	65.068	0.100
520.500	89.165	0.099
520.600	85.918	0.100
520.700	75.402	0.100
520.800	52.716	0.099
520.900	44.712	0.099
521.000	72.122	0.099
521.100	63.446	0.100
521.200	65.308	0.099
521.300	57.753	0.099
521.400	65.306	0.099
521.500	79.690	0.099
521.600	72.164	0.099
521.700	72.928	0.100
521.800	73.821	0.099
521.900	83.238	0.099
522.000	72.465	0.100
522.100	64.185	0.100
522.200	59.990	0.099
522.300	82.068	0.099
522.400	57.625	0.100
522.500	59.259	0.100
522.600	61.201	0.099
522.700	80.076	0.099
522.800	72.225	0.099
522.900	59.336	0.099
523.000	80.379	0.100
523.100	80.976	0.100
523.200	77.531	0.100
523.300	67.939	0.099
523.400	68.124	0.100
523.500	54.617	0.100
523.600	55.674	0.099
523.700	63.788	0.100
523.800	55.658	0.099
523.900	66.168	0.099
524.000	75.318	0.100
524.100	75.320	0.100
524.200	72.348	0.100
524.300	66.153	0.100
524.400	66.738	0.100
524.500	64.973	0.100
524.600	74.772	0.100
524.700	77.088	0.099
524.800	66.146	0.100
524.900	79.443	0.100
525.000	74.734	0.099
525.100	72.226	0.100
525.200	62.076	0.099
525.300	55.972	0.100
525.400	81.183	0.099
525.500	66.552	0.099
525.600	43.837	0.099
525.700	75.601	0.099
525.800	76.246	0.099
525.900	73.671	0.100
526.000	61.521	0.099
526.100	74.959	0.100
526.200	77.194	0.100
526.300	72.023	0.100
526.400	73.822	0.100
526.500	72.553	0.100
526.600	73.677	0.099
526.700	78.682	0.099
526.800	75.082	0.099
526.900	69.734	0.099
527.000	57.812	0.099
527.100	80.833	0.100
527.200	65.294	0.099
527.300	71.821	0.100
527.400	61.966	0.100
527.500	59.882	0.099
527.600	73.907	0.099
527.700	54.948	0.099
527.800	77.399	0.100
527.900	69.072	0.100
528.000	69.909	0.099
528.100	69.612	0.100
528.200	72.281	0.100
528.300	70.048	0.100
528.400	62.803	0.100
528.500	83.497	0.100
528.600	71.057	0.100
528.700	84.283	0.100
528.800	72.429	0.100
528.900	73.808	0.100
529.000	62.409	0.100
529.100	72.247	0.099
529.200	60.077	0.099
529.300	68.601	0.100
529.400	76.326	0.100
529.500	66.216	0.100
529.600	49.943	0.100
529.700	62.989	0.100
529.800	62.724	0.099
529.900	70.685	0.099
530.000	69.875	0.100
530.100	68.087	0.100
530.200	67.396	0.100
530.300	66.957	0.100
530.400	68.892	0.099
530.500	79.131	0.100
530.600	73.561	0.100
530.700	59.087	0.100
530.800	77.538	0.100
530.900	73.090	0.100
531.000	57.376	0.100
531.100	76.970	0.100
531.200	51.579	0.100
531.300	74.590	0.099
531.400	75.501	0.100
531.500	69.020	0.100
531.600	66.862	0.099
531.700	73.257	0.099
531.800	85.411	0.100
531.900	57.674	0.100
532.000	58.639	0.100
532.100	92.853	0.100
532.200	61.175	0.100
532.300	70.231	0.100
532.400	71.628	0.100
532.500	60.248	0.100
532.600	60.486	0.100
532.700	71.484	0.100
532.800	65.764	0.100
532.900	68.027	0.100
533.000	78.758	0.100
533.100	71.203	0.100
533.200	69.213	0.100
533.300	59.017	0.100
533.400	76.761	0.100
533.500	77.356	0.100
533.600	76.761	0.099
533.700	79.934	0.100
533.800	67.379	0.099
533.900	55.312	0.100
534.000	52.896	0.099
534.100	80.164	0.099
534.200	63.944	0.100
534.300	65.070	0.099
534.400	71.335	0.099
534.500	69.701	0.100
534.600	55.736	0.100
534.700	51.707	0.099
534.800	76.579	0.100
534.900	52.526	0.099
535.000	85.103	0.100
535.100	72.297	0.100
535.200	72.587	0.099
535.300	63.172	0.099
535.400	65.997	0.100
535.500	74.560	0.100
535.600	67.534	0.100
535.700	73.911	0.100
535.800	84.631	0.100
535.900	55.960	0.099
536.000	69.898	0.100
536.100	71.256	0.099
536.200	78.972	0.099
536.300	86.300	0.100
536.400	61.330	0.100
536.500	55.139	0.100
536.600	75.050	0.100
536.700	72.335	0.100
536.800	60.190	0.100
536.900	51.528	0.099
537.000	84.206	0.100
537.100	73.045	0.099
537.200	70.459	0.100
537.300	71.361	0.099
537.400	76.546	0.099
537.500	72.815	0.100
537.600	59.197	0.100
537.700	67.964	0.099
537.800	82.118	0.100
537.900	81.821	0.100
538.000	71.140	0.100
538.100	66.045	0.099
538.200	64.043	0.099
538.300	67.168	0.100
538.400	57.306	0.100
538.500	62.099	0.100
538.600	72.002	0.100
538.700	75.150	0.099
538.800	73.406	0.100
538.900	66.311	0.100
539.000	78.670	0.100
539.100	61.919	0.099
539.200	63.510	0.100
539.300	86.137	0.100
539.400	45.373	0.100
539.500	69.885	0.100
539.600	69.029	0.100
539.700	59.131	0.100
539.800	77.319	0.100
539.900	53.706	0.100
540.000	75.415	0.100
540.100	57.562	0.100
540.200	41.122	0.100
540.300	36.960	0.100
540.400	33.280	0.099
540.500	23.028	0.100
540.600	27.030	0.100
540.700	35.210	0.099
540.800	12.077	0.099
540.900	-16.856	0.099
541.000	8.579	0.100
541.100	-10.493	0.099
541.200	-18.281	0.099
541.300	-10.022	0.099
541.400	-11.407	0.100
541.500	-31.319	0.099
541.600	-27.671	0.099
541.700	-3.649	0.100
541.800	-26.457	0.100
541.900	-38.022	0.100
542.000	-36.652	0.099
542.100	-22.949	0.100
542.200	-42.811	0.099
542.300	-45.508	0.100
542.400	-37.618	0.099
542.500	-43.242	0.100
542.600	-44.153	0.100
542.700	-40.763	0.099
542.800	-45.233	0.100
542.900	-33.092	0.100
543.000	-33.544	0.099
543.100	-45.469	0.100
543.200	-50.329	0.100
543.300	-40.876	0.099
543.400	-53.252	0.099
543.500	-35.015	0.099
543.600	-50.892	0.100
543.700	-60.211	0.099
543.800	-34.361	0.099
543.900	-42.848	0.099
544.000	-41.264	0.100
544.100	-39.430	0.099
544.200	-24.257	0.099
544.300	-24.953	0.099
544.400	-34.618	0.099
544.500	-25.708	0.100
544.600	-44.013	0.099
544.700	-48.308	0.099
544.800	-35.905	0.099
544.900	-34.674	0.099
545.000	-40.220	0.099
545.100	-33.972	0.099
545.200	-37.937	0.099
545.300	-19.701	0.100
545.400	-45.734	0.099
545.500	-32.829	0.099
545.600	-20.389	0.099
545.700	-30.849	0.100
545.800	-37.898	0.099
545.900	-31.336	0.100
546.000	-37.568	0.099
546.100	-36.914	0.099
546.200	-31.821	0.099
546.300	-31.546	0.100
546.400	-23.326	0.099
546.500	-41.523	0.100
546.600	-22.885	0.100
546.700	-38.738	0.099
546.800	-43.457	0.099
546.900	-9.281	0.099
547.000	-23.789	0.099
547.100	-43.376	0.100
547.200	-39.689	0.099
547.300	-28.518	0.099
547.400	-30.345	0.099
547.500	-31.819	0.099
547.600	-35.052	0.099
547.700	-28.549	0.100
547.800	-39.844	0.099
547.900	-41.187	0.099
548.000	-12.730	0.099
548.100	-31.649	0.099
548.200	-33.746	0.099
548.300	-30.947	0.099
548.400	-41.331	0.099
548.500	-36.054	0.100
548.600	-27.426	0.100
548.700	-29.566	0.100
548.800	-39.367	0.099
548.900	-38.020	0.100
549.000	-32.620	0.099
549.100	-31.325	0.100
549.200	-33.999	0.100
549.300	-31.347	0.100
549.400	-32.007	0.100
549.500	-36.770	0.099
549.600	-28.631	0.099
549.700	-25.699	0.099
549.800	-15.935	0.100
549.900	-39.361	0.099
550.000	-21.012	0.099
550.100	-19.078	0.100
550.200	-31.204	0.100
550.300	-29.301	0.099
550.400	-32.700	0.099
550.500	-25.088	0.100
550.600	-28.266	0.099
550.700	-30.944	0.099
550.800	-29.934	0.100
550.900	-44.636	0.100
551.000	-21.736	0.100
551.100	-26.076	0.100
551.200	-9.368	0.099
551.300	-33.657	0.100
551.400	-34.997	0.099
551.500	-46.030	0.099
551.600	-42.897	0.099
551.700	-33.418	0.100
551.800	-26.526	0.100
551.900	-30.319	0.100
552.000	-29.030	0.099
552.100	-33.684	0.100
552.200	-22.987	0.100
552.300	-21.730	0.100
552.400	-33.920	0.100
552.500	-29.121	0.100
552.600	-34.327	0.099
552.700	-28.075	0.100
552.800	-22.341	0.100
552.900	-52.190	0.100
553.000	-19.164	0.099
553.100	-26.048	0.099
553.200	-15.719	0.099
553.300	-34.750	0.099
553.400	-50.382	0.100
553.500	-23.485	0.099
553.600	-32.457	0.100
553.700	-31.082	0.100
553.800	-48.558	0.099
553.900	-42.753	0.099
554.000	-19.148	0.099
554.100	-33.642	0.100
554.200	-44.226	0.100
554.300	-13.660	0.099
554.400	-35.233	0.099
554.500	-13.313	0.099
554.600	-40.427	0.100
554.700	-28.083	0.100
554.800	-30.708	0.100
554.900	-26.658	0.100
555.000	-39.267	0.100
555.100	-40.153	0.099
555.200	-22.942	0.100
555.300	-33.414	0.099
555.400	-29.209	0.100
555.500	-20.767	0.100
555.600	-43.553	0.099
555.700	-28.109	0.100
555.800	-18.811	0.099
555.900	-53.600	0.099
556.000	-43.158	0.099
556.100	-22.722	0.100
556.200	-25.695	0.100
556.300	-34.080	0.099
556.400	-37.832	0.100
556.500	-14.584	0.099
556.600	-27.169	0.100
556.700	-29.624	0.099
556.800	-41.560	0.100
556.900	-36.603	0.099
557.000	-31.190	0.100
557.100	-39.275	0.099
557.200	-35.067	0.099
557.300	-36.293	0.099
557.400	-24.638	0.099
557.500	-21.751	0.099
557.600	-34.339	0.099
557.700	-35.691	0.100
557.800	-23.146	0.100
557.900	-26.706	0.100
558.000	-49.729	0.099
558.100	-45.090	0.100
558.200	-26.275	0.100
558.300	-34.430	0.099
558.400	-40.964	0.100
558.500	-20.551	0.099
558.600	-28.774	0.099
558.700	-30.785	0.099
558.800	-34.103	0.100
558.900	-35.753	0.100
559.000	-43.651	0.100
559.100	-17.478	0.099
559.200	-30.354	0.099
559.300	-44.730	0.100
559.400	-24.247	0.099
559.500	-36.433	0.099
559.600	-36.141	0.099
559.700	-25.233	0.099
559.800	-51.959	0.099
559.900	-31.859	0.100
560.000	-27.711	0.099
560.100	-34.136	0.100
560.200	-35.470	0.100
560.300	-18.343	0.100
560.400	-30.340	0.099
560.500	-45.531	0.099
560.600	-31.964	0.100
560.700	-32.893	0.099
560.800	-29.777	0.100
560.900	-43.472	0.099
561.000	-20.834	0.099
561.100	-26.957	0.099
561.200	-31.309	0.100
561.300	-14.829	0.099
561.400	-37.691	0.099
561.500	-25.246	0.100
561.600	-35.571	0.099
561.700	-27.522	0.099
561.800	-38.153	0.100
561.900	-30.941	0.100
562.000	-32.847	0.100
562.100	-37.380	0.099
562.200	-22.809	0.099
562.300	-37.551	0.100
562.400	-22.694	0.100
562.500	-28.257	0.099
562.600	-29.969	0.100
562.700	-29.781	0.099
562.800	-11.181	0.099
562.900	-30.523	0.100
563.000	-45.729	0.100
563.100	-36.154	0.099
563.200	-37.320	0.099
563.300	-18.532	0.100
563.400	-21.717	0.100
563.500	-35.515	0.099
563.600	-28.565	0.099
563.700	-24.981	0.099
563.800	-29.840	0.099
563.900	-57.086	0.100
564.000	-35.319	0.099
564.100	-33.749	0.099
564.200	-29.088	0.099
564.300	-25.853	0.100
564.400	-22.618	0.099
564.500	-28.793	0.099
564.600	-52.957	0.100
564.700	-22.809	0.100
564.800	-28.479	0.100
564.900	-37.923	0.100
565.000	-25.357	0.099
565.100	-20.091	0.100
565.200	-35.128	0.100
565.300	-21.639	0.099
565.400	-28.092	0.099
565.500	-49.110	0.099
565.600	-6.381	0.100
565.700	-18.966	0.099
565.800	-35.312	0.099
565.900	-33.714	0.099
566.000	-28.556	0.099
566.100	-29.209	0.100
566.200	-34.046	0.099
566.300	-29.908	0.099
566.400	-12.928	0.099
566.500	-52.912	0.099
566.600	-33.909	0.099
566.700	-24.306	0.100
566.800	-41.777	0.099
566.900	-44.575	0.099
567.000	-31.107	0.099
567.100	-23.869	0.100
567.200	-21.052	0.099
567.300	-25.435	0.099
567.400	-40.216	0.099
567.500	-29.816	0.100
567.600	-41.412	0.099
567.700	-28.066	0.100
567.800	-27.894	0.100
567.900	-28.991	0.099
568.000	-43.109	0.099
568.100	-25.503	0.100
568.200	-28.327	0.100
568.300	-22.246	0.099
568.400	-31.452	0.100
568.500	-28.386	0.099
568.600	-25.842	0.099
568.700	-39.992	0.100
568.800	-50.461	0.099
568.900	-9.944	0.100
569.000	-57.065	0.099
569.100	-32.679	0.099
569.200	-23.690	0.099
569.300	-30.720	0.099
569.400	-16.131	0.099
569.500	-20.011	0.099
569.600	-37.121	0.099
569.700	-24.505	0.099
569.800	-41.752	0.099
569.900	-30.707	0.100
570.000	-31.393	0.100
570.100	-21.510	0.099
570.200	-23.010	0.099
570.300	-34.566	0.099
570.400	-40.446	0.100
570.500	-18.343	0.100
570.600	-23.012	0.099
570.700	-30.146	0.099
570.800	-43.574	0.100
570.900	-14.257	0.099
571.000	-35.007	0.099
571.100	-46.548	0.099
571.200	-18.073	0.099
571.300	-29.665	0.100
571.400	-29.506	0.100
571.500	-23.848	0.100
571.600	-13.970	0.099
571.700	-22.799	0.099
571.800	-39.594	0.099
571.900	-34.640	0.099
572.000	-40.141	0.100
572.100	-39.801	0.099
572.200	-25.913	0.099
572.300	-30.755	0.100
572.400	-50.371	0.100
572.500	-29.635	0.099
572.600	-33.563	0.100
572.700	-38.074	0.100
572.800	-29.030	0.099
572.900	-29.219	0.100
573.000	-24.385	0.100
573.100	-42.894	0.100
573.200	-27.449	0.099
573.300	-17.397	0.100
573.400	-37.600	0.100
573.500	-19.239	0.100
573.600	-28.293	0.099
573.700	-28.122	0.099
573.800	-26.226	0.100
573.900	-48.884	0.099
574.000	-28.679	0.099
574.100	-30.884	0.099
574.200	-40.216	0.100
574.300	-9.082	0.099
574.400	-39.277	0.099
574.500	-34.003	0.099
574.600	-23.319	0.100
574.700	-36.261	0.099
574.800	-29.585	0.100
574.900	-34.951	0.100
575.000	-32.978	0.100
575.100	-38.274	0.099
575.200	-32.935	0.100
575.300	-11.427	0.099
575.400	-38.086	0.100
575.500	-30.784	0.100
575.600	-58.170	0.100
575.700	-12.581	0.100
575.800	-28.005	0.100
575.900	-25.480	0.100
576.000	-23.325	0.100
576.100	-37.226	0.100
576.200	-25.974	0.099
576.300	-29.859	0.100
576.400	-29.785	0.100
576.500	-18.422	0.100
576.600	-42.277	0.100
576.700	-24.698	0.100
576.800	-37.772	0.100
576.900	-28.080	0.100
577.000	-34.599	0.100
577.100	-29.196	0.100
577.200	-29.742	0.100
577.300	-34.074	0.100
577.400	-29.704	0.099
577.500	-27.749	0.100
577.600	-40.392	0.100
577.700	-31.062	0.099
577.800	-27.074	0.100
577.900	-39.608	0.100
578.000	-39.236	0.100
578.100	-32.259	0.100
578.200	-45.473	0.099
578.300	-28.156	0.100
578.400	-29.963	0.100
578.500	-25.150	0.100
578.600	-36.656	0.100
578.700	-36.218	0.100
578.800	-35.162	0.100
578.900	-41.320	0.100
579.000	-37.629	0.100
579.100	-39.222	0.100
579.200	-24.658	0.100
579.300	-22.656	0.099
579.400	-19.942	0.099
579.500	-29.002	0.099
579.600	-37.305	0.100
579.700	-31.511	0.099
579.800	-19.115	0.100
579.900	-22.125	0.100
580.000	-39.220	0.100
580.100	-26.134	0.100
580.200	-27.664	0.099
580.300	-31.688	0.099
580.400	-26.658	0.100
580.500	-23.128	0.099
580.600	-39.265	0.100
580.700	-23.610	0.099
580.800	-18.161	0.100
580.900	-34.536	0.100
581.000	-34.745	0.100
581.100	-30.570	0.100
581.200	-38.147	0.100
581.300	-38.071	0.100
581.400	-50.072	0.099
581.500	-45.724	0.100
581.600	-32.007	0.100
581.700	-28.839	0.099
581.800	-30.484	0.100
581.900	-31.978	0.099
582.000	-40.056	0.100
582.100	-30.097	0.099
582.200	-35.631	0.100
582.300	-19.672	0.100
582.400	-21.765	0.100
582.500	-19.343	0.100
582.600	-33.752	0.100
582.700	-22.834	0.099
582.800	-50.422	0.099
582.900	-27.690	0.099
583.000	-31.259	0.100
583.100	-24.625	0.100
583.200	-8.907	0.099
583.300	-30.883	0.100
583.400	-31.247	0.100
583.500	-14.948	0.100
583.600	-22.165	0.100
583.700	-33.801	0.099
583.800	-42.980	0.100
583.900	-21.889	0.100
584.000	-16.239	0.100
584.100	-29.184	0.100
584.200	-23.499	0.099
584.300	-34.235	0.100
584.400	-32.365	0.099
584.500	-30.640	0.099
584.600	-25.369	0.099
584.700	-25.785	0.099
584.800	-35.594	0.100
584.900	-33.504	0.099
585.000	-20.242	0.100
585.100	-16.647	0.100
585.200	-35.426	0.100
585.300	-34.426	0.100
585.400	-31.087	0.100
585.500	-50.288	0.099
585.600	-23.658	0.100
585.700	-25.181	0.099
585.800	-28.758	0.100
585.900	-29.498	0.099
586.000	-17.775	0.100
586.100	-49.205	0.099
586.200	-47.458	0.099
586.300	-28.760	0.099
586.400	-27.754	0.099
586.500	-37.316	0.100
586.600	-32.881	0.100
586.700	-23.732	0.100
586.800	-28.595	0.100
586.900	-25.183	0.100
587.000	-24.459	0.100
587.100	-33.520	0.100
587.200	-27.589	0.099
587.300	-37.263	0.100
587.400	-41.672	0.100
587.500	-35.051	0.099
587.600	-11.206	0.099
587.700	-25.235	0.100
587.800	-37.108	0.100
587.900	-46.798	0.100
588.000	-30.004	0.100
588.100	-37.630	0.100
588.200	-29.713	0.100
588.300	-25.863	0.099
588.400	-23.645	0.100
588.500	-41.310	0.100
588.600	-22.350	0.100
588.700	-35.158	0.099
588.800	-25.726	0.099
588.900	-26.072	0.100
589.000	-30.693	0.099
589.100	-18.482	0.100
589.200	-35.955	0.099
589.300	-19.185	0.100
589.400	-22.995	0.100
589.500	-23.512	0.099
589.600	-17.150	0.100
589.700	-34.960	0.100
589.800	-30.464	0.100
589.900	-44.674	0.099
590.000	-50.136	0.100
590.100	-14.257	0.099
590.200	-30.363	0.100
590.300	-26.041	0.100
590.400	-19.143	0.100
590.500	-42.164	0.099
590.600	-28.856	0.100
590.700	-33.569	0.100
590.800	-12.030	0.099
590.900	-26.103	0.100
591.000	-33.954	0.099
591.100	-28.168	0.099
591.200	-25.730	0.099
591.300	-20.765	0.100
591.400	-25.313	0.100
591.500	-26.250	0.100
591.600	-26.493	0.099
591.700	-19.121	0.100
591.800	-29.265	0.100
591.900	-45.012	0.100
592.000	-28.612	0.100
592.100	-34.639	0.100
592.200	-40.592	0.099
592.300	-31.659	0.099
592.400	-35.982	0.100
592.500	-18.848	0.100
592.600	-24.940	0.099
592.700	-12.604	0.100
592.800	-34.573	0.100
592.900	-22.994	0.099
593.000	-32.849	0.099
593.100	-27.271	0.100
593.200	-30.831	0.100
593.300	-21.561	0.100
593.400	-37.273	0.099
593.500	-29.652	0.099
593.600	-18.454	0.099
593.700	-32.942	0.099
593.800	-26.096	0.100
593.900	-26.754	0.100
594.000	-47.884	0.099
594.100	-25.033	0.100
594.200	-58.132	0.100
594.300	-17.202	0.100
594.400	-17.966	0.100
594.500	-29.579	0.100
594.600	-10.314	0.100
594.700	-29.784	0.100
594.800	-38.217	0.100
594.900	-4.569	0.100
595.000	-17.134	0.100
595.100	-28.252	0.100
595.200	-25.250	0.100
595.300	-25.404	0.100
595.400	-33.492	0.100
595.500	-17.569	0.100
595.600	-28.255	0.100
595.700	-25.591	0.100
595.800	-27.220	0.099
595.900	-30.900	0.100
596.000	-31.831	0.100
596.100	-38.546	0.100
596.200	-14.462	0.099
596.300	-22.087	0.100
596.400	-10.382	0.099
596.500	-30.656	0.100
596.600	-14.721	0.100
596.700	-43.279	0.100
596.800	-30.639	0.100
596.900	-26.324	0.100
597.000	-29.089	0.099
597.100	-24.594	0.100
597.200	-32.369	0.100
597.300	-9.374	0.100
597.400	-26.463	0.099
597.500	-28.820	0.099
597.600	-32.699	0.100
597.700	-23.859	0.100
597.800	-34.169	0.100
597.900	-18.814	0.100
598.000	-24.401	0.099
598.100	-41.073	0.099
598.200	-28.188	0.100
598.300	-20.388	0.100
598.400	-33.898	0.100
598.500	-32.010	0.100
598.600	-16.271	0.100
598.700	-34.838	0.100
598.800	-12.594	0.099
598.900	-25.976	0.100
599.000	-19.709	0.100
599.100	-38.605	0.099
599.200	-18.123	0.100
599.300	-42.232	0.100
599.400	-10.977	0.100
599.500	-28.005	0.100
599.600	-26.692	0.100
599.700	-25.591	0.100
599.800	-12.668	0.100
599.900	-15.339	0.100
600.000	-26.142	0.100
600.100	-32.177	0.100
600.200	-28.547	0.100
600.300	-37.517	0.100
600.400	-28.522	0.100
600.500	-46.120	0.100
600.600	-28.330	0.100
600.700	-22.488	0.099
600.800	-18.461	0.100
600.900	-45.115	0.100
601.000	-22.512	0.100
601.100	-10.940	0.100
601.200	-23.764	0.100
601.300	-14.035	0.100
601.400	-26.854	0.100
601.500	-23.098	0.100
601.600	-34.617	0.100
601.700	-21.393	0.100
601.800	-23.095	0.100
601.900	-24.548	0.100
602.000	-35.842	0.099
602.100	-31.214	0.099
602.200	-29.945	0.100
602.300	-27.309	0.099
602.400	-23.500	0.100
602.500	-18.446	0.100
602.600	-31.525	0.100
602.700	-27.626	0.100
602.800	-23.853	0.100
602.900	-27.692	0.100
603.000	-44.782	0.100
603.100	-27.149	0.100
603.200	-31.568	0.100
603.300	-13.433	0.100
603.400	-38.479	0.099
603.500	-26.028	0.099
603.600	-20.109	0.100
603.700	-16.778	0.100
603.800	-40.887	0.100
603.900	-16.426	0.100
604.000	-34.005	0.100
604.100	-14.327	0.100
604.200	-33.635	0.100
604.300	-12.383	0.100
604.400	-34.301	0.100
604.500	-35.040	0.100
604.600	-28.472	0.100
604.700	-23.970	0.100
604.800	-14.664	0.100
604.900	-22.257	0.100
605.000	-21.985	0.100
605.100	-24.021	0.100
605.200	-38.346	0.100
605.300	-28.410	0.100
605.400	-38.920	0.100
605.500	-14.678	0.099
605.600	-24.893	0.100
605.700	-20.901	0.099
605.800	-26.203	0.099
605.900	-32.651	0.099
606.000	-37.699	0.100
606.100	-20.912	0.099
606.200	-27.738	0.100
606.300	-32.319	0.099
606.400	-16.837	0.099
606.500	-29.427	0.100
606.600	-22.298	0.100
606.700	-21.043	0.100
606.800	-20.034	0.099
606.900	-30.764	0.100
607.000	-20.239	0.100
607.100	-30.798	0.100
607.200	-23.196	0.100
607.300	-31.796	0.100
607.400	-27.112	0.100
607.500	-16.777	0.099
607.600	-21.072	0.100
607.700	-21.003	0.100
607.800	-24.218	0.100
607.900	-21.385	0.100
608.000	-32.857	0.100
608.100	-34.670	0.100
608.200	-35.793	0.099
608.300	-33.243	0.100
608.400	-26.980	0.099
608.500	-24.037	0.100
608.600	-28.702	0.099
608.700	-38.942	0.100
608.800	-24.053	0.100
608.900	-18.206	0.100
609.000	-18.581	0.100
609.100	-28.235	0.100
609.200	-26.667	0.099
609.300	-27.225	0.100
609.400	-16.968	0.100
609.500	-20.129	0.100
609.600	-21.987	0.100
609.700	-21.533	0.100
609.800	-23.671	0.100
609.900	-40.095	0.099
610.000	-32.458	0.100
610.100	-21.378	0.100
610.200	-20.164	0.099
610.300	-20.305	0.100
610.400	-24.889	0.100
610.500	-29.042	0.100
610.600	-23.611	0.099
610.700	-25.035	0.099
610.800	-31.347	0.099
610.900	-40.810	0.099
611.000	-14.194	0.099
611.100	-33.557	0.099
611.200	-20.139	0.100
611.300	-14.247	0.099
611.400	-37.255	0.100
611.500	-19.466	0.099
611.600	-12.533	0.099
611.700	-10.040	0.099
611.800	-44.128	0.099
611.900	-22.699	0.099
612.000	-18.438	0.099
612.100	-35.652	0.099
612.200	-31.045	0.100
612.300	-19.801	0.099
612.400	-30.903	0.100
612.500	-24.076	0.099
612.600	-25.195	0.099
612.700	-31.750	0.100
612.800	-21.932	0.100
612.900	-33.521	0.099
613.000	-34.848	0.099
613.100	-26.461	0.099
613.200	-30.247	0.099
613.300	-33.065	0.099
613.400	-26.855	0.099
613.500	-27.149	0.099
613.600	-21.143	0.099
613.700	-12.425	0.099
613.800	-21.121	0.099
613.900	-23.239	0.100
614.000	-23.423	0.099
614.100	-26.905	0.099
614.200	-16.104	0.099
614.300	-33.187	0.099
614.400	-23.366	0.100
614.500	-28.115	0.099
614.600	-16.654	0.099
614.700	-22.163	0.100
614.800	-28.403	0.099
614.900	-27.003	0.099
615.000	-36.982	0.099
615.100	-13.493	0.100
615.200	-16.734	0.099
615.300	-23.535	0.099
615.400	-21.336	0.099
615.500	-25.289	0.100
615.600	-35.958	0.100
615.700	-27.738	0.099
615.800	-3.934	0.099
615.900	-27.208	0.099
616.000	-15.535	0.100
616.100	-25.814	0.100
616.200	-16.946	0.100
616.300	-36.912	0.099
616.400	-29.067	0.100
616.500	-30.261	0.100
616.600	-28.489	0.100
616.700	-22.240	0.099
616.800	-34.070	0.100
616.900	-32.320	0.100
617.000	-16.507	0.100
617.100	-25.775	0.100
617.200	-17.140	0.100
617.300	-7.527	0.100
617.400	-8.190	0.100
617.500	-24.875	0.100
617.600	-25.887	0.100
617.700	-32.492	0.100
617.800	-30.936	0.100
617.900	-9.338	0.100
618.000	-20.183	0.100
618.100	-37.953	0.099
618.200	-23.383	0.099
618.300	-26.427	0.099
618.400	-24.571	0.100
618.500	-18.722	0.099
618.600	-31.121	0.100
618.700	-6.976	0.099
618.800	-27.584	0.100
618.900	-15.708	0.100
619.000	-25.951	0.100
619.100	-19.656	0.100
619.200	-41.300	0.099
619.300	-20.024	0.100
619.400	-22.375	0.100
619.500	-40.908	0.100
619.600	-8.090	0.099
619.700	-10.437	0.100
619.800	-42.522	0.100
619.900	-17.474	0.099
620.000	-10.339	0.099
620.100	-21.236	0.099
620.200	-23.910	0.099
620.300	-29.628	0.099
620.400	-24.152	0.099
620.500	-18.763	0.099
620.600	-22.569	0.099
620.700	-38.404	0.099
620.800	-25.047	0.099
620.900	-37.090	0.099
621.000	-21.560	0.099
621.100	-1.647	0.099
621.200	-19.026	0.099
621.300	-15.601	0.099
621.400	-11.203	0.100
621.500	-39.096	0.099
621.600	-27.059	0.100
621.700	-37.647	0.099
621.800	-22.393	0.099
621.900	-17.441	0.099
622.000	-27.835	0.100
622.100	-40.642	0.099
622.200	-3.037	0.100
622.300	-34.183	0.099
622.400	-18.561	0.100
622.500	-23.797	0.099
622.600	-17.981	0.099
622.700	-18.291	0.099
622.800	-27.713	0.100
622.900	-29.946	0.099
623.000	-21.172	0.099
623.100	-39.156	0.100
623.200	-13.789	0.099
623.300	-30.240	0.100
623.400	-33.603	0.100
623.500	-24.654	0.099
623.600	-23.240	0.099
623.700	-26.715	0.099
623.800	-40.206	0.099
623.900	-10.831	0.100
624.000	-23.974	0.099
624.100	-44.578	0.099
624.200	-15.328	0.099
624.300	-31.313	0.099
624.400	-8.339	0.099
624.500	-37.278	0.099
624.600	-25.759	0.099
624.700	-27.475	0.099
624.800	-18.864	0.099
624.900	-19.210	0.100
625.000	-33.572	0.099
625.100	-35.014	0.099
625.200	-38.628	0.099
625.300	-34.565	0.100
625.400	-26.888	0.099
625.500	-16.634	0.099
625.600	-24.772	0.099
625.700	-16.758	0.100
625.800	-31.309	0.099
625.900	-14.863	0.099
626.000	-27.398	0.099
626.100	-9.847	0.099
626.200	-21.272	0.100
626.300	-18.606	0.100
626.400	-25.491	0.099
626.500	-29.920	0.100
626.600	-20.656	0.100
626.700	-24.372	0.100
626.800	-16.277	0.100
626.900	-14.719	0.100
627.000	-14.947	0.099
627.100	-23.394	0.100
627.200	-26.654	0.100
627.300	-25.825	0.099
627.400	-21.372	0.099
627.500	-26.969	0.099
627.600	-36.536	0.100
627.700	-22.484	0.099
627.800	-19.637	0.099
627.900	-24.001	0.099
628.000	-12.796	0.099
628.100	-20.387	0.099
628.200	-19.238	0.100
628.300	-22.151	0.099
628.400	-21.595	0.099
628.500	-27.725	0.099
628.600	-18.154	0.099
628.700	-29.630	0.099
628.800	-15.338	0.099
628.900	-31.076	0.099
629.000	-31.691	0.099
629.100	-9.668	0.099
629.200	-18.668	0.100
629.300	-18.764	0.100
629.400	-24.105	0.099
629.500	-36.389	0.100
629.600	-29.284	0.099
629.700	-36.979	0.099
629.800	0.542	0.100
629.900	-22.086	0.099
630.000	-10.431	0.100
630.100	-9.414	0.099
630.200	3.792	0.099
630.300	9.516	0.100
630.400	17.408	0.100
630.500	23.058	0.100
630.600	6.187	0.099
630.700	20.561	0.100
630.800	16.261	0.100
630.900	12.302	0.100
631.000	21.773	0.099
631.100	18.867	0.099
631.200	14.346	0.100
631.300	26.000	0.099
631.400	31.255	0.100
631.500	25.790	0.099
631.600	26.428	0.099
631.700	23.994	0.099
631.800	30.352	0.100
631.900	1.161	0.099
632.000	27.318	0.100
632.100	17.167	0.099
632.200	13.846	0.099
632.300	30.142	0.099
632.400	24.387	0.099
632.500	2.517	0.099
632.600	6.656	0.099
632.700	5.947	0.099
632.800	26.065	0.100
632.900	26.541	0.099
633.000	28.648	0.099
633.100	4.680	0.100
633.200	8.010	0.100
633.300	8.204	0.099
633.400	9.574	0.100
633.500	13.898	0.100
633.600	4.576	0.099
633.700	30.268	0.099
633.800	36.434	0.100
633.900	24.597	0.099
634.000	2.021	0.099
634.100	3.913	0.099
634.200	10.957	0.099
634.300	15.556	0.100
634.400	15.186	0.100
634.500	5.548	0.099
634.600	17.605	0.100
634.700	13.724	0.100
634.800	14.922	0.099
634.900	10.395	0.099
635.000	19.532	0.100
635.100	32.952	0.099
635.200	15.532	0.100
635.300	12.412	0.099
635.400	6.501	0.099
635.500	16.321	0.100
635.600	20.252	0.099
635.700	21.334	0.099
635.800	16.283	0.099
635.900	28.900	0.100
636.000	16.941	0.100
636.100	-1.932	0.100
636.200	17.114	0.100
636.300	10.987	0.100
636.400	9.790	0.100
636.500	13.709	0.099
636.600	28.870	0.099
636.700	14.862	0.099
636.800	21.902	0.100
636.900	29.179	0.100
637.000	12.573	0.100
637.100	25.918	0.100
637.200	7.019	0.100
637.300	31.460	0.100
637.400	11.743	0.100
637.500	29.224	0.099
637.600	35.671	0.100
637.700	23.950	0.099
637.800	24.908	0.099
637.900	34.614	0.100
638.000	33.657	0.100
638.100	8.495	0.100
638.200	23.589	0.099
638.300	23.740	0.100
638.400	27.762	0.100
638.500	36.539	0.099
638.600	41.191	0.099
638.700	29.309	0.100
638.800	31.766	0.099
638.900	20.537	0.099
639.000	24.358	0.100
639.100	21.643	0.099
639.200	40.068	0.100
639.300	27.790	0.099
639.400	30.760	0.100
639.500	8.697	0.100
639.600	36.168	0.100
639.700	51.338	0.100
639.800	33.701	0.099
639.900	32.699	0.100
640.000	31.833	0.100
640.100	39.228	0.099
640.200	17.752	0.100
640.300	28.290	0.099
640.400	36.374	0.099
640.500	32.576	0.100
640.600	40.871	0.100
640.700	52.714	0.100
640.800	39.592	0.099
640.900	16.515	0.099
641.000	39.468	0.100
641.100	41.105	0.099
641.200	44.796	0.099
641.300	36.999	0.099
641.400	38.203	0.100
641.500	20.143	0.100
641.600	35.790	0.100
641.700	45.500	0.100
641.800	35.795	0.099
641.900	47.415	0.099
642.000	36.720	0.100
642.100	31.575	0.100
642.200	47.526	0.099
642.300	44.341	0.100
642.400	46.317	0.100
642.500	44.039	0.100
642.600	42.088	0.100
642.700	34.519	0.099
642.800	35.106	0.099
642.900	27.595	0.100
643.000	39.397	0.099
643.100	51.346	0.100
643.200	31.502	0.100
643.300	40.869	0.100
643.400	28.405	0.100
643.500	37.876	0.100
643.600	27.078	0.100
643.700	59.502	0.100
643.800	38.364	0.099
643.900	38.399	0.100
644.000	36.739	0.099
644.100	51.208	0.100
644.200	44.941	0.100
644.300	44.523	0.099
644.400	30.830	0.099
644.500	34.318	0.099
644.600	33.831	0.099
644.700	41.585	0.100
644.800	65.101	0.100
644.900	60.190	0.100
645.000	32.617	0.099
645.100	21.318	0.100
645.200	44.988	0.099
645.300	49.642	0.099
645.400	46.504	0.100
645.500	45.606	0.100
645.600	40.840	0.099
645.700	48.008	0.100
645.800	25.614	0.100
645.900	53.439	0.099
646.000	57.754	0.100
646.100	40.602	0.100
646.200	50.888	0.100
646.300	44.731	0.100
646.400	33.328	0.100
646.500	25.126	0.100
646.600	37.555	0.099
646.700	51.083	0.100
646.800	36.158	0.100
646.900	50.346	0.100
647.000	58.081	0.099
647.100	41.886	0.099
647.200	54.512	0.099
647.300	50.708	0.100
647.400	49.156	0.100
647.500	57.185	0.100
647.600	48.085	0.100
647.700	51.253	0.099
647.800	44.711	0.099
647.900	57.586	0.100
648.000	43.497	0.100
648.100	53.774	0.100
648.200	46.994	0.100
648.300	49.017	0.100
648.400	43.182	0.100
648.500	53.296	0.100
648.600	39.762	0.100
648.700	40.120	0.099
648.800	55.168	0.099
648.900	52.755	0.099
649.000	69.353	0.100
649.100	48.245	0.100
649.200	56.887	0.100
649.300	47.162	0.100
649.400	38.925	0.100
649.500	32.758	0.100
649.600	58.968	0.100
649.700	57.781	0.100
649.800	52.436	0.100
649.900	41.769	0.100
650.000	59.405	0.099
650.100	26.782	0.100
650.200	52.606	0.100
650.300	51.354	0.100
650.400	50.310	0.100
650.500	51.257	0.100
650.600	39.032	0.100
650.700	48.024	0.100
650.800	42.311	0.100
650.900	52.050	0.100
651.000	67.429	0.100
651.100	47.385	0.100
651.200	59.525	0.100
651.300	49.043	0.100
651.400	38.625	0.099
651.500	55.416	0.100
651.600	52.749	0.100
651.700	46.683	0.100
651.800	54.889	0.100
651.900	37.405	0.100
652.000	68.382	0.100
652.100	59.578	0.100
652.200	42.145	0.100
652.300	45.011	0.099
652.400	70.598	0.100
652.500	61.303	0.100
652.600	54.526	0.100
652.700	45.162	0.100
652.800	34.316	0.100
652.900	51.591	0.100
653.000	58.595	0.100
653.100	62.371	0.100
653.200	54.651	0.100
653.300	39.441	0.100
653.400	48.068	0.100
653.500	59.592	0.100
653.600	39.614	0.100
653.700	56.444	0.100
653.800	56.459	0.100
653.900	48.981	0.100
654.000	44.904	0.100
654.100	54.018	0.100
654.200	63.541	0.100
654.300	55.031	0.099
654.400	43.796	0.100
654.500	44.868	0.100
654.600	62.672	0.099
654.700	56.843	0.100
654.800	61.730	0.099
654.900	56.380	0.100
655.000	45.589	0.100
655.100	57.208	0.099
655.200	61.093	0.100
655.300	55.977	0.100
655.400	49.865	0.100
655.500	46.217	0.100
655.600	61.122	0.100
655.700	37.568	0.100
655.800	54.391	0.100
655.900	63.761	0.100
656.000	63.599	0.100
656.100	53.887	0.100
656.200	50.002	0.100
656.300	57.789	0.100
656.400	47.747	0.100
656.500	65.438	0.100
656.600	46.361	0.100
656.700	57.763	0.100
656.800	48.271	0.100
656.900	42.780	0.100
657.000	78.699	0.099
657.100	44.528	0.100
657.200	64.235	0.100
657.300	55.430	0.100
657.400	58.471	0.100
657.500	58.302	0.100
657.600	54.461	0.100
657.700	60.327	0.100
657.800	63.133	0.100
657.900	69.294	0.100
658.000	49.950	0.100
658.100	46.473	0.100
658.200	47.948	0.100
658.300	72.602	0.100
658.400	64.467	0.100
658.500	49.390	0.100
658.600	52.688	0.100
658.700	54.326	0.100
658.800	61.517	0.100
658.900	56.350	0.100
659.000	70.939	0.100
659.100	61.028	0.100
659.200	69.561	0.100
659.300	50.107	0.100
659.400	54.264	0.100
659.500	48.959	0.100
659.600	66.846	0.100
659.700	43.121	0.100
659.800	67.826	0.100
659.900	58.334	0.100
660.000	62.848	0.100
660.100	62.436	0.100
660.200	48.408	0.099
660.300	54.106	0.100
660.400	64.022	0.100
660.500	57.523	0.100
660.600	47.289	0.100
660.700	70.153	0.100
660.800	47.674	0.100
660.900	45.087	0.100
661.000	70.514	0.100
661.100	54.383	0.100
661.200	55.308	0.100
661.300	58.852	0.100
661.400	54.550	0.100
661.500	63.376	0.100
661.600	46.590	0.100
661.700	56.005	0.100
661.800	55.806	0.100
661.900	44.875	0.100
662.000	68.592	0.100
662.100	63.114	0.100
662.200	70.212	0.100
662.300	56.141	0.100
662.400	52.930	0.100
662.500	76.731	0.100
662.600	63.544	0.100
662.700	58.421	0.100
662.800	56.698	0.100
662.900	65.536	0.100
663.000	70.765	0.100
663.100	58.107	0.100
663.200	57.969	0.100
663.300	54.397	0.100
663.400	76.345	0.100
663.500	71.630	0.100
663.600	61.693	0.100
663.700	57.527	0.100
663.800	78.686	0.100
663.900	58.309	0.100
664.000	57.322	0.100
664.100	71.706	0.100
664.200	76.741	0.100
664.300	63.272	0.100
664.400	64.532	0.100
664.500	64.293	0.100
664.600	59.825	0.100
664.700	68.440	0.100
664.800	61.416	0.100
664.900	57.247	0.100
665.000	66.885	0.100
665.100	71.825	0.100
665.200	53.729	0.100
665.300	61.817	0.100
665.400	43.205	0.100
665.500	54.855	0.100
665.600	68.491	0.100
665.700	63.625	0.100
665.800	69.427	0.100
665.900	89.636	0.100
666.000	60.865	0.100
666.100	49.531	0.100
666.200	60.382	0.100
666.300	55.888	0.100
666.400	85.765	0.100
666.500	50.294	0.100
666.600	74.184	0.100
666.700	61.521	0.100
666.800	51.905	0.100
666.900	50.379	0.100
667.000	73.051	0.100
667.100	53.899	0.100
667.200	66.955	0.100
667.300	70.578	0.100
667.400	75.961	0.100
667.500	53.731	0.100
667.600	59.615	0.100
667.700	72.042	0.100
667.800	66.635	0.100
667.900	66.645	0.100
668.000	56.784	0.100
668.100	58.812	0.100
668.200	76.810	0.100
668.300	70.643	0.100
668.400	77.343	0.100
668.500	67.668	0.100
668.600	52.059	0.100
668.700	56.452	0.100
668.800	72.950	0.100
668.900	58.385	0.100
669.000	62.344	0.100
669.100	71.421	0.100
669.200	64.972	0.100
669.300	65.394	0.100
669.400	66.606	0.100
669.500	64.399	0.100
669.600	69.353	0.100
669.700	71.750	0.100
669.800	86.377	0.100
669.900	54.683	0.100
670.000	72.298	0.100
670.100	62.405	0.100
670.200	56.316	0.100
670.300	52.264	0.100
670.400	55.407	0.100
670.500	58.016	0.100
670.600	85.367	0.100
670.700	76.201	0.100
670.800	61.274	0.100
670.900	66.362	0.100
671.000	66.263	0.100
671.100	74.918	0.100
671.200	74.454	0.100
671.300	53.633	0.100
671.400	56.848	0.100
671.500	66.838	0.100
671.600	68.534	0.100
671.700	64.945	0.100
671.800	63.343	0.100
671.900	55.958	0.100
672.000	71.569	0.100
672.100	57.844	0.100
672.200	65.425	0.100
672.300	65.135	0.100
672.400	56.109	0.100
672.500	66.792	0.100
672.600	69.810	0.100
672.700	77.496	0.100
672.800	68.712	0.100
672.900	60.836	0.100
673.000	63.617	0.100
673.100	64.271	0.100
673.200	50.703	0.100
673.300	64.195	0.100
673.400	75.688	0.100
673.500	60.982	0.100
673.600	77.611	0.100
673.700	69.008	0.100
673.800	67.862	0.100
673.900	81.664	0.100
674.000	67.298	0.100
674.100	74.902	0.100
674.200	57.883	0.100
674.300	43.933	0.100
674.400	61.442	0.100
674.500	73.402	0.100
674.600	74.782	0.100
674.700	64.153	0.100
674.800	69.947	0.100
674.900	66.542	0.100
675.000	65.658	0.100
675.100	72.688	0.100
675.200	68.393	0.100
675.300	56.357	0.100
675.400	58.517	0.100
675.500	72.733	0.100
675.600	75.234	0.100
675.700	59.190	0.100
675.800	66.998	0.100
675.900	61.417	0.100
676.000	78.140	0.100
676.100	63.768	0.100
676.200	80.929	0.100
676.300	74.368	0.100
676.400	74.940	0.100
676.500	49.187	0.100
676.600	56.431	0.100
676.700	77.987	0.100
676.800	60.930	0.100
676.900	54.377	0.100
677.000	89.000	0.100
677.100	66.793	0.100
677.200	78.779	0.100
677.300	62.833	0.100
677.400	68.306	0.100
677.500	72.521	0.100
677.600	79.395	0.100
677.700	61.595	0.100
677.800	80.228	0.100
677.900	56.292	0.100
678.000	58.554	0.100
678.100	56.776	0.100
678.200	87.874	0.100
678.300	69.407	0.100
678.400	70.280	0.100
678.500	66.998	0.100
678.600	60.203	0.100
678.700	74.496	0.100
678.800	79.257	0.100
678.900	72.795	0.100
679.000	56.239	0.100
679.100	72.435	0.100
679.200	78.916	0.100
679.300	64.601	0.100
679.400	78.668	0.100
679.500	45.061	0.100
679.600	75.904	0.100
679.700	68.482	0.100
679.800	59.456	0.100
679.900	53.725	0.100
680.000	76.305	0.100
680.100	64.594	0.100
680.200	69.943	0.100
680.300	59.249	0.100
680.400	58.236	0.100
680.500	72.127	0.100
680.600	76.935	0.100
680.700	66.956	0.100
680.800	69.875	0.100
680.900	70.589	0.100
681.000	66.960	0.100
681.100	71.607	0.100
681.200	57.871	0.100
681.300	60.134	0.100
681.400	62.086	0.100
681.500	68.023	0.100
681.600	58.001	0.100
681.700	78.858	0.100
681.800	58.464	0.100
681.900	70.181	0.100
682.000	74.728	0.100
682.100	56.827	0.100
682.200	53.220	0.100
682.300	70.862	0.100
682.400	64.621	0.100
682.500	65.716	0.100
682.600	68.108	0.100
682.700	70.114	0.100
682.800	71.459	0.100
682.900	60.681	0.100
683.000	71.747	0.100
683.100	83.283	0.100
683.200	73.162	0.100
683.300	68.601	0.100
683.400	82.696	0.100
683.500	66.369	0.100
683.600	74.689	0.100
683.700	67.453	0.100
683.800	74.611	0.100
683.900	61.952	0.100
684.000	70.224	0.100
684.100	64.342	0.100
684.200	54.879	0.100
684.300	80.109	0.100
684.400	61.962	0.100
684.500	71.326	0.100
684.600	76.151	0.100
684.700	70.756	0.100
684.800	64.963	0.100
684.900	53.996	0.100
685.000	51.773	0.100
685.100	89.886	0.100
685.200	65.912	0.100
685.300	73.500	0.100
685.400	69.754	0.100
685.500	68.479	0.100
685.600	70.910	0.100
685.700	67.314	0.100
685.800	67.879	0.100
685.900	53.365	0.100
686.000	79.802	0.100
686.100	81.818	0.100
686.200	69.625	0.100
686.300	65.352	0.100
686.400	86.941	0.100
686.500	71.855	0.100
686.600	76.806	0.100
686.700	78.663	0.100
686.800	69.770	0.100
686.900	68.693	0.100
687.000	71.175	0.100
687.100	69.041	0.100
687.200	77.014	0.100
687.300	81.038	0.100
687.400	70.413	0.100
687.500	65.847	0.100
687.600	58.244	0.100
687.700	61.793	0.100
687.800	64.221	0.100
687.900	69.910	0.100
688.000	71.419	0.100
688.100	66.164	0.100
688.200	59.642	0.100
688.300	66.495	0.100
688.400	59.561	0.100
688.500	52.892	0.100
688.600	71.311	0.100
688.700	58.712	0.100
688.800	49.024	0.100
688.900	60.679	0.100
689.000	60.377	0.100
689.100	76.410	0.100
689.200	77.919	0.100
689.300	60.982	0.100
689.400	78.932	0.100
689.500	58.752	0.100
689.600	68.559	0.100
689.700	63.448	0.100
689.800	72.839	0.100
689.900	74.971	0.100
690.000	68.675	0.100
690.100	62.158	0.100
690.200	49.272	0.100
690.300	45.873	0.100
690.400	30.108	0.100
690.500	27.482	0.100
690.600	25.394	0.100
690.700	11.520	0.100
690.800	31.877	0.100
690.900	6.566	0.100
691.000	3.545	0.100
691.100	8.479	0.100
691.200	10.301	0.100
691.300	-12.797	0.100
691.400	-11.835	0.100
691.500	-21.092	0.100
691.600	-16.739	0.100
691.700	-22.418	0.100
691.800	-20.650	0.100
691.900	-39.616	0.100
692.000	-40.159	0.100
692.100	-9.644	0.100
692.200	-23.201	0.100
692.300	-30.462	0.100
692.400	-52.465	0.100
692.500	-37.634	0.100
692.600	-33.217	0.100
692.700	-52.188	0.100
692.800	-33.297	0.100
692.900	-29.476	0.100
693.000	-41.604	0.100
693.100	-38.917	0.100
693.200	-40.635	0.100
693.300	-24.147	0.100
693.400	-33.390	0.100
693.500	-37.413	0.100
693.600	-55.446	0.100
693.700	-45.645	0.100
693.800	-29.428	0.100
693.900	-40.343	0.100
694.000	-14.328	0.100
694.100	-31.904	0.100
694.200	-42.008	0.100
694.300	-34.147	0.100
694.400	-46.071	0.100
694.500	-38.081	0.100
694.600	-35.439	0.100
694.700	-44.669	0.100
694.800	-24.919	0.100
694.900	-31.230	0.100
695.000	-29.213	0.100
695.100	-19.135	0.100
695.200	-43.161	0.100
695.300	-30.079	0.100
695.400	-41.951	0.100
695.500	-22.609	0.100
695.600	-25.392	0.100
695.700	-53.212	0.100
695.800	-18.382	0.100
695.900	-18.442	0.100
696.000	-20.503	0.100
696.100	-26.481	0.100
696.200	-40.381	0.100
696.300	-30.304	0.100
696.400	-35.962	0.100
696.500	-41.560	0.100
696.600	-25.937	0.100
696.700	-27.514	0.100
696.800	-27.311	0.100
696.900	-29.855	0.100
697.000	-22.939	0.100
697.100	-33.090	0.100
697.200	-30.294	0.100
697.300	-41.464	0.100
697.400	-21.902	0.100
697.500	-29.332	0.100
697.600	-16.372	0.100
697.700	-29.462	0.100
697.800	-28.161	0.100
697.900	-15.559	0.100
698.000	-29.369	0.100
698.100	-36.006	0.100
698.200	-42.947	0.100
698.300	-49.959	0.100
698.400	-19.654	0.100
698.500	-12.774	0.100
698.600	-22.102	0.100
698.700	-35.485	0.100
698.800	-30.101	0.100
698.900	-26.938	0.100
699.000	-18.615	0.100
699.100	-18.148	0.100
699.200	-35.637	0.100
699.300	-19.601	0.100
699.400	-32.683	0.100
699.500	-37.685	0.100
699.600	-35.860	0.100
699.700	-29.681	0.100
699.800	-6.940	0.100
699.900	-39.318	0.100
700.000	-35.103	0.100
700.100	-37.394	0.100
700.200	-21.247	0.100
700.300	-46.252	0.100
700.400	-33.754	0.100
700.500	-20.816	0.100
700.600	-39.558	0.100
700.700	-36.164	0.100
700.800	-38.475	0.100
700.900	-36.456	0.100
701.000	-29.341	0.100
701.100	-37.615	0.100
701.200	-41.410	0.100
701.300	-24.793	0.100
701.400	-29.219	0.100
701.500	-33.579	0.100
701.600	-35.162	0.100
701.700	-35.558	0.100
701.800	-24.815	0.100
701.900	-39.228	0.100
702.000	-43.126	0.100
702.100	-32.280	0.100
702.200	-25.584	0.100
702.300	-25.359	0.100
702.400	-50.409	0.100
702.500	-23.264	0.100
702.600	-42.013	0.100
702.700	-22.610	0.100
702.800	-30.314	0.100
702.900	-28.000	0.100
703.000	-39.915	0.100
703.100	-25.669	0.100
703.200	-33.490	0.100
703.300	-29.681	0.100
703.400	-31.568	0.100
703.500	-19.047	0.100
703.600	-45.119	0.100
703.700	-23.561	0.100
703.800	-45.502	0.100
703.900	-9.852	0.100
704.000	-38.621	0.100
704.100	-38.751	0.100
704.200	-27.628	0.100
704.300	-49.334	0.100
704.400	-50.382	0.100
704.500	-42.326	0.100
704.600	-23.946	0.100
704.700	-17.527	0.100
704.800	-30.897	0.100
704.900	-29.878	0.100
705.000	-24.644	0.100
705.100	-31.372	0.100
705.200	-38.368	0.100
705.300	-52.025	0.100
705.400	-17.048	0.100
705.500	-27.950	0.100
705.600	-38.812	0.100
705.700	-30.344	0.100
705.800	-28.800	0.100
705.900	-34.119	0.100
706.000	-27.375	0.100
706.100	-27.634	0.100
706.200	-39.101	0.100
706.300	-32.830	0.100
706.400	-23.919	0.100
706.500	-38.340	0.100
706.600	-30.032	0.100
706.700	-39.315	0.100
706.800	-32.375	0.100
706.900	-28.594	0.100
707.000	-43.485	0.100
707.100	-27.268	0.100
707.200	-36.386	0.100
707.300	-32.422	0.100
707.400	-27.835	0.100
707.500	-25.873	0.100
707.600	-40.921	0.100
707.700	-56.833	0.100
707.800	-28.461	0.100
707.900	-36.597	0.100
708.000	-31.635	0.100
708.100	-34.114	0.100
708.200	-28.135	0.100
708.300	-43.584	0.100
708.400	-32.600	0.100
708.500	-29.296	0.100
708.600	-21.273	0.100
708.700	-32.077	0.100
708.800	-16.792	0.100
708.900	-43.513	0.100
709.000	-22.438	0.100
709.100	-24.071	0.100
709.200	-29.020	0.100
709.300	-43.220	0.100
709.400	-29.629	0.100
709.500	-50.493	0.100
709.600	-26.634	0.100
709.700	-31.517	0.100
709.800	-35.765	0.100
709.900	-41.420	0.100
710.000	-38.004	0.100
710.100	-23.821	0.100
710.200	-50.512	0.100
710.300	-14.052	0.100
710.400	-37.213	0.100
710.500	-24.131	0.100
710.600	-11.275	0.100
710.700	-44.027	0.100
710.800	-38.726	0.100
710.900	-40.507	0.100
711.000	-49.407	0.100
711.100	-43.315	0.100
711.200	-20.499	0.100
711.300	-28.346	0.100
711.400	-22.970	0.100
711.500	-41.386	0.100
711.600	-24.934	0.100
711.700	-34.766	0.100
711.800	-35.962	0.100
711.900	-36.002	0.100
712.000	-29.250	0.100
712.100	-26.425	0.100
712.200	-31.511	0.100
712.300	-43.148	0.100
712.400	-28.936	0.100
712.500	-16.199	0.100
712.600	-30.757	0.100
712.700	-44.155	0.100
712.800	-43.536	0.100
712.900	-19.039	0.100
713.000	-30.159	0.100
713.100	-41.731	0.100
713.200	-17.624	0.100
713.300	-35.250	0.100
713.400	-35.190	0.100
713.500	-38.590	0.100
713.600	-32.188	0.100
713.700	-32.818	0.100
713.800	-27.285	0.100
713.900	-47.420	0.100
714.000	-24.491	0.100
714.100	-31.879	0.100
714.200	-28.018	0.100
714.300	-36.389	0.100
714.400	-23.696	0.100
714.500	-25.305	0.100
714.600	-43.593	0.100
714.700	-30.136	0.100
714.800	-34.426	0.100
714.900	-47.261	0.100
715.000	-41.091	0.100
715.100	-36.942	0.100
715.200	-42.977	0.100
715.300	-26.454	0.100
715.400	-39.872	0.100
715.500	-53.421	0.100
715.600	-32.647	0.100
715.700	-30.638	0.100
715.800	-30.046	0.100
715.900	-42.159	0.100
716.000	-32.884	0.100
716.100	-48.587	0.100
716.200	-16.558	0.100
716.300	-22.056	0.100
716.400	-37.498	0.100
716.500	-47.719	0.100
716.600	-23.678	0.100
716.700	-40.103	0.100
716.800	-16.214	0.100
716.900	-33.195	0.100
717.000	-36.713	0.100
717.100	-29.493	0.100
717.200	-30.740	0.100
717.300	-34.589	0.100
717.400	-34.837	0.100
717.500	-27.560	0.100
717.600	-33.499	0.100
717.700	-26.751	0.100
717.800	-25.588	0.100
717.900	-42.665	0.100
718.000	-18.618	0.100
718.100	-41.878	0.100
718.200	-29.156	0.100
718.300	-29.015	0.100
718.400	-39.063	0.100
718.500	-24.650	0.100
718.600	-26.421	0.100
718.700	-39.032	0.100
718.800	-41.685	0.100
718.900	-31.254	0.100
719.000	-25.582	0.100
719.100	-15.302	0.100
719.200	-24.141	0.100
719.300	-39.020	0.100
719.400	-36.935	0.100
719.500	-32.683	0.100
719.600	-5.851	0.100
719.700	-39.061	0.100
719.800	-46.210	0.100
719.900	-17.178	0.100
720.000	-27.941	0.100
720.100	-21.065	0.100
720.200	-26.901	0.100
720.300	-28.291	0.100
720.400	-35.110	0.100
720.500	-27.639	0.100
720.600	-27.187	0.100
720.700	-47.209	0.100
720.800	-23.238	0.100
720.900	-40.585	0.100
721.000	-24.901	0.100
721.100	-34.019	0.100
721.200	-26.080	0.100
721.300	-33.039	0.100
721.400	-39.518	0.100
721.500	-21.304	0.100
721.600	-42.525	0.100
721.700	-28.423	0.100
721.800	-30.037	0.100
721.900	-23.678	0.100
722.000	-37.310	0.100
722.100	-32.446	0.100
722.200	-40.664	0.100
722.300	-24.145	0.100
722.400	-25.075	0.100
722.500	-34.028	0.100
722.600	-31.751	0.100
722.700	-14.847	0.100
722.800	-22.090	0.100
722.900	-43.077	0.100
723.000	-35.278	0.100
723.100	-27.810	0.100
723.200	-23.597	0.100
723.300	-44.901	0.100
723.400	-41.928	0.100
723.500	-38.281	0.100
723.600	-36.745	0.100
723.700	-41.871	0.100
723.800	-37.204	0.100
723.900	-27.817	0.100
724.000	-32.971	0.100
724.100	-28.725	0.100
724.200	-17.677	0.100
724.300	-37.792	0.100
724.400	-27.236	0.100
724.500	-45.239	0.100
724.600	-29.095	0.100
724.700	-37.106	0.100
724.800	-27.102	0.100
724.900	-41.236	0.100
725.000	-21.651	0.100
725.100	-26.863	0.100
725.200	-19.171	0.100
725.300	-24.893	0.100
725.400	-31.821	0.100
725.500	-28.798	0.100
725.600	-24.563	0.100
725.700	-38.645	0.100
725.800	-28.467	0.100
725.900	-23.267	0.100
726.000	-29.960	0.100
726.100	-40.271	0.100
726.200	-17.185	0.100
726.300	-39.370	0.100
726.400	-46.098	0.100
726.500	-19.494	0.100
726.600	-21.448	0.100
726.700	-22.529	0.100
726.800	-46.868	0.100
726.900	-34.428	0.100
727.000	-33.575	0.100
727.100	-30.810	0.100
727.200	-24.930	0.100
727.300	-23.743	0.100
727.400	-26.131	0.100
727.500	-30.771	0.100
727.600	-32.628	0.100
727.700	-45.709	0.100
727.800	-38.344	0.100
727.900	-23.111	0.100
728.000	-37.187	0.100
728.100	-18.066	0.100
728.200	-29.506	0.100
728.300	-31.419	0.100
728.400	-34.385	0.100
728.500	-40.336	0.100
728.600	-26.755	0.100
728.700	-25.738	0.100
728.800	-33.043	0.100
728.900	-29.333	0.100
729.000	-41.436	0.100
729.100	-30.761	0.100
729.200	-41.147	0.100
729.300	-15.836	0.100
729.400	-34.306	0.100
729.500	-43.811	0.100
729.600	-32.289	0.100
729.700	-33.436	0.100
729.800	-37.048	0.100
729.900	-17.272	0.100
730.000	-47.344	0.100
730.100	-25.445	0.100
730.200	-29.602	0.100
730.300	-30.956	0.100
730.400	-37.302	0.100
730.500	-29.899	0.100
730.600	-27.642	0.100
730.700	-26.090	0.100
730.800	-26.728	0.100
730.900	-31.931	0.100
731.000	-34.960	0.100
731.100	-37.360	0.100
731.200	-32.397	0.100
731.300	-22.987	0.100
731.400	-32.383	0.100
731.500	-32.875	0.100
731.600	-24.909	0.100
731.700	-33.519	0.100
731.800	-46.128	0.100
731.900	-22.712	0.100
732.000	-20.896	0.100
732.100	-23.138	0.100
732.200	-28.361	0.100
732.300	-26.749	0.100
732.400	-29.683	0.100
732.500	-29.177	0.100
732.600	-28.587	0.100
732.700	-29.695	0.100
732.800	-30.377	0.100
732.900	-29.531	0.100
733.000	-18.955	0.100
733.100	-38.032	0.100
733.200	-40.597	0.100
733.300	-23.636	0.100
733.400	-25.078	0.100
733.500	-32.425	0.100
733.600	-30.968	0.100
733.700	-24.576	0.100
733.800	-19.405	0.100
733.900	-34.372	0.099
734.000	-31.460	0.099
734.100	-39.835	0.099
734.200	-32.382	0.099
734.300	-27.585	0.099
734.400	-12.096	0.099
734.500	-35.008	0.099
734.600	-28.741	0.099
734.700	-22.430	0.099
734.800	-36.787	0.099
734.900	-23.125	0.099
735.000	-24.960	0.099
735.100	-28.669	0.099
735.200	-45.609	0.099
735.300	-28.170	0.099
735.400	-38.322	0.099
735.500	-25.177	0.099
735.600	-47.475	0.099
735.700	-31.497	0.099
735.800	-22.935	0.099
735.900	-32.293	0.099
736.000	-31.533	0.099
736.100	-29.669	0.099
736.200	-40.502	0.099
736.300	-21.084	0.099
736.400	-31.775	0.099
736.500	-23.943	0.099
736.600	-42.085	0.099
736.700	-40.966	0.099
736.800	-19.961	0.099
736.900	-43.974	0.099
737.000	-29.467	0.099
737.100	-20.376	0.099
737.200	-36.516	0.099
737.300	-38.093	0.099
737.400	-37.960	0.099
737.500	-28.890	0.099
737.600	-26.494	0.099
737.700	-23.493	0.099
737.800	-23.261	0.099
737.900	-34.656	0.099
738.000	-30.746	0.099
738.100	-29.386	0.099
738.200	-33.211	0.099
738.300	-27.915	0.099
738.400	-32.571	0.099
738.500	-30.316	0.099
738.600	-30.467	0.099
738.700	-27.303	0.099
738.800	-36.490	0.099
738.900	-24.152	0.099
739.000	-21.363	0.099
739.100	-31.805	0.099
739.200	-19.923	0.099
739.300	-28.198	0.099
739.400	-21.478	0.099
739.500	-38.679	0.099
739.600	-26.871	0.099
739.700	-34.220	0.099
739.800	-34.417	0.099
739.900	-29.705	0.099
740.000	-30.480	0.099
740.100	-27.110	0.099
740.200	-36.226	0.099
740.300	-25.635	0.099
740.400	-36.330	0.099
740.500	-23.571	0.099
740.600	-23.280	0.099
740.700	-33.557	0.099
740.800	-42.044	0.099
740.900	-32.510	0.099
741.000	-15.958	0.099
741.100	-22.459	0.099
741.200	-27.791	0.099
741.300	-31.577	0.099
741.400	-39.446	0.099
741.500	-34.430	0.099
741.600	-19.431	0.099
741.700	-33.640	0.099
741.800	-30.834	0.099
741.900	-14.590	0.099
742.000	-30.183	0.099
742.100	-20.509	0.099
742.200	-28.352	0.099
742.300	-36.374	0.099
742.400	-26.662	0.099
742.500	-40.212	0.099
742.600	-27.519	0.099
742.700	-27.250	0.099
742.800	-39.651	0.099
742.900	-35.648	0.099
743.000	-30.279	0.099
743.100	-28.429	0.099
743.200	-22.349	0.099
743.300	-30.078	0.099
743.400	-31.939	0.099
743.500	-28.259	0.099
743.600	-25.541	0.099
743.700	-36.616	0.099
743.800	-27.606	0.099
743.900	-31.968	0.099
744.000	-31.281	0.099
744.100	-23.834	0.099
744.200	-38.692	0.099
744.300	-40.980	0.099
744.400	-27.570	0.099
744.500	-22.446	0.099
744.600	-35.898	0.099
744.700	-22.284	0.099
744.800	-24.639	0.099
744.900	-21.049	0.099
745.000	-13.370	0.099
745.100	-28.710	0.099
745.200	-35.092	0.099
745.300	-11.927	0.099
745.400	-18.374	0.099
745.500	-27.852	0.099
745.600	-56.183	0.099
745.700	-55.672	0.099
745.800	-28.473	0.099
745.900	-4.984	0.099
746.000	-35.410	0.099
746.100	-6.310	0.099
746.200	-33.186	0.099
746.300	-17.979	0.099
746.400	-35.726	0.099
746.500	-43.220	0.099
746.600	-44.185	0.099
746.700	-17.616	0.099
746.800	-18.324	0.099
746.900	-27.921	0.099
747.000	-24.486	0.099
747.100	-38.928	0.099
747.200	-34.082	0.099
747.300	-11.538	0.099
747.400	-27.818	0.099
747.500	-31.785	0.099
747.600	-20.646	0.099
747.700	-16.594	0.099
747.800	-57.448	0.099
747.900	-14.093	0.099
748.000	-49.544	0.099
748.100	-10.077	0.099
748.200	-37.864	0.099
748.300	-31.607	0.099
748.400	-35.832	0.099
748.500	-25.040	0.099
748.600	-26.530	0.099
748.700	-23.629	0.099
748.800	-30.750	0.099
748.900	-37.099	0.099
749.000	-22.536	0.099
749.100	-26.390	0.099
749.200	-33.455	0.099
749.300	-26.427	0.099
749.400	-43.507	0.099
749.500	-40.480	0.099
749.600	-27.356	0.099
749.700	-27.656	0.099
749.800	-32.010	0.099
749.900	-36.615	0.099
750.000	-30.881	0.099
750.100	-39.586	0.099
750.200	-33.602	0.099
750.300	-26.522	0.099
750.400	-20.852	0.099
750.500	-18.329	0.099
750.600	-34.822	0.099
750.700	-23.269	0.099
750.800	-35.998	0.099
750.900	-29.974	0.099
751.000	-20.350	0.099
751.100	-35.725	0.099
751.200	-25.415	0.099
751.300	-22.532	0.099
751.400	-34.728	0.099
751.500	-10.574	0.099
751.600	-14.495	0.099
751.700	-39.396	0.099
751.800	-24.699	0.099
751.900	-36.222	0.099
752.000	-40.715	0.099
752.100	-19.800	0.099
752.200	-28.254	0.099
752.300	-40.992	0.099
752.400	-34.940	0.099
752.500	-14.060	0.099
752.600	-40.404	0.099
752.700	-32.228	0.099
752.800	-25.561	0.099
752.900	-25.579	0.099
753.000	-20.366	0.099
753.100	-33.616	0.099
753.200	-45.858	0.099
753.300	-22.784	0.099
753.400	-14.456	0.100
753.500	-19.588	0.100
753.600	-31.690	0.099
753.700	-34.948	0.100
753.800	-15.045	0.100
753.900	-45.236	0.100
754.000	-20.272	0.100
754.100	-41.012	0.100
754.200	-17.015	0.100
754.300	-24.990	0.100
754.400	-23.688	0.100
754.500	-21.881	0.100
754.600	-29.699	0.100
754.700	-35.179	0.100
754.800	-28.245	0.100
754.900	-30.856	0.100
755.000	-33.836	0.100
755.100	-24.165	0.100
755.200	-27.168	0.100
755.300	-26.341	0.100
755.400	-36.471	0.100
755.500	-18.522	0.100
755.600	-44.512	0.100
755.700	-33.279	0.100
755.800	-29.526	0.100
755.900	-41.627	0.100
756.000	-25.624	0.100
756.100	-28.190	0.099
756.200	-42.050	0.099
756.300	-18.486	0.100
756.400	-35.762	0.099
756.500	-15.627	0.100
756.600	-29.833	0.100
756.700	-33.123	0.100
756.800	-14.763	0.100
756.900	-31.127	0.100
757.000	-30.748	0.100
757.100	-31.494	0.100
757.200	-24.940	0.100
757.300	-20.335	0.100
757.400	-22.046	0.100
757.500	-25.592	0.100
757.600	-32.764	0.100
757.700	-24.778	0.100
757.800	-21.422	0.100
757.900	-32.330	0.099
758.000	-34.760	0.100
758.100	-21.546	0.100
758.200	-22.248	0.100
758.300	-29.588	0.100
758.400	-22.657	0.099
758.500	-32.451	0.100
758.600	-39.620	0.100
758.700	-29.939	0.100
758.800	-22.770	0.100
758.900	-28.738	0.100
759.000	-34.512	0.100
759.100	-21.990	0.100
759.200	-39.885	0.100
759.300	-12.170	0.100
759.400	-22.690	0.100
759.500	-22.037	0.100
759.600	-35.722	0.100
759.700	-26.265	0.100
759.800	-8.958	0.100
759.900	-37.214	0.100
760.000	-25.105	0.100
760.100	-13.538	0.100
760.200	-19.850	0.100
760.300	-36.436	0.100
760.400	-42.488	0.100
760.500	-18.531	0.100
760.600	-25.991	0.100
760.700	-35.585	0.100
760.800	-36.804	0.100
760.900	-24.239	0.100
761.000	-29.412	0.100
761.100	-9.915	0.100
761.200	-22.258	0.100
761.300	-30.390	0.099
761.400	-18.767	0.100
761.500	-16.433	0.099
761.600	-26.642	0.100
761.700	-41.707	0.100
761.800	-15.849	0.099
761.900	-40.183	0.100
762.000	-24.362	0.100
762.100	-25.266	0.099
762.200	-27.132	0.100
762.300	-31.372	0.100
762.400	-46.976	0.100
762.500	-11.841	0.100
762.600	-21.066	0.100
762.700	-33.832	0.100
762.800	-27.598	0.100
762.900	-35.722	0.100
763.000	-25.214	0.100
763.100	-21.600	0.100
763.200	-30.382	0.100
763.300	-18.733	0.100
763.400	-37.184	0.100
763.500	-27.236	0.100
763.600	-20.419	0.100
763.700	-33.696	0.100
763.800	-41.892	0.100
763.900	-27.419	0.100
764.000	-30.104	0.100
764.100	-17.279	0.100
764.200	-18.429	0.100
764.300	-43.235	0.100
764.400	-33.404	0.100
764.500	-31.660	0.100
764.600	-8.763	0.100
764.700	-35.822	0.100
764.800	-35.814	0.100
764.900	-21.236	0.100
765.000	-28.593	0.100
765.100	-20.978	0.100
765.200	-20.045	0.100
765.300	-25.186	0.099
765.400	-27.672	0.100
765.500	-37.923	0.100
765.600	-15.282	0.100
765.700	-32.890	0.100
765.800	-36.306	0.099
765.900	-22.376	0.100
766.000	-13.651	0.100
766.100	-33.719	0.099
766.200	-22.998	0.100
766.300	-16.831	0.099
766.400	-42.179	0.100
766.500	-41.148	0.100
766.600	-24.187	0.099
766.700	-31.696	0.100
766.800	-17.793	0.100
766.900	-24.871	0.100
767.000	-14.986	0.100
767.100	-34.724	0.099
767.200	-16.748	0.100
767.300	-26.189	0.100
767.400	-47.275	0.100
767.500	-44.304	0.100
767.600	-7.955	0.100
767.700	-4.720	0.100
767.800	-11.387	0.100
767.900	-39.638	0.099
768.000	-31.305	0.100
768.100	-35.452	0.100
768.200	-27.471	0.100
768.300	-13.632	0.100
768.400	-13.040	0.100
768.500	-18.542	0.099
768.600	-21.713	0.099
768.700	-27.361	0.100
768.800	-17.499	0.100
768.900	-22.283	0.099
769.000	-17.421	0.099
769.100	-17.427	0.100
769.200	-39.997	0.100
769.300	-28.380	0.100
769.400	-19.339	0.099
769.500	-25.914	0.100
769.600	-25.794	0.100
769.700	-1.715	0.100
769.800	-48.933	0.100
769.900	-15.455	0.100
770.000	-25.049	0.100
770.100	-21.936	0.099
770.200	-25.421	0.100
770.300	-19.808	0.100
770.400	-17.817	0.100
770.500	-29.334	0.100
770.600	-19.188	0.100
770.700	-35.140	0.100
770.800	-24.897	0.100
770.900	-20.079	0.100
771.000	-31.636	0.100
771.100	-22.236	0.100
771.200	-16.716	0.100
771.300	-31.950	0.099
771.400	-21.929	0.100
771.500	-27.643	0.100
771.600	-30.572	0.099
771.700	-37.862	0.100
771.800	-23.367	0.100
771.900	-11.925	0.100
772.000	-12.828	0.100
772.100	-19.138	0.100
772.200	-14.897	0.099
772.300	-48.750	0.100
772.400	-33.700	0.100
772.500	-23.232	0.100
772.600	-38.099	0.100
772.700	-10.115	0.100
772.800	-20.544	0.100
772.900	-32.316	0.100
773.000	-31.083	0.100
773.100	-34.556	0.100
773.200	-18.345	0.100
773.300	-34.663	0.100
773.400	-31.304	0.100
773.500	-25.490	0.100
773.600	-7.586	0.100
773.700	-40.971	0.100
773.800	-24.140	0.100
773.900	-41.443	0.100
774.000	-22.294	0.100
774.100	-19.059	0.100
774.200	-13.157	0.100
774.300	-23.290	0.100
774.400	-39.105	0.100
774.500	-51.964	0.100
774.600	-30.622	0.100
774.700	-4.681	0.100
774.800	-36.889	0.100
774.900	-12.514	0.100
775.000	-14.439	0.100
775.100	-37.987	0.100
775.200	-32.851	0.100
775.300	-16.770	0.100
775.400	-10.276	0.100
775.500	-23.662	0.099
775.600	-22.167	0.100
775.700	-19.274	0.100
775.800	-31.933	0.099
775.900	-46.938	0.100
776.000	-26.731	0.100
776.100	-29.297	0.100
776.200	-23.723	0.100
776.300	-21.674	0.100
776.400	-25.513	0.100
776.500	-15.892	0.099
776.600	-39.475	0.100
776.700	0.194	0.100
776.800	-15.329	0.100
776.900	-23.867	0.100
777.000	-36.629	0.100
777.100	-7.250	0.100
777.200	-28.561	0.100
777.300	-26.609	0.100
777.400	-19.595	0.100
777.500	-27.134	0.100
777.600	-24.914	0.100
777.700	-27.014	0.100
777.800	-11.003	0.100
777.900	-25.543	0.100
778.000	-29.490	0.100
778.100	-29.234	0.100
778.200	-26.831	0.100
778.300	-22.238	0.100
778.400	-23.085	0.100
778.500	-20.353	0.100
778.600	-32.557	0.100
778.700	-33.881	0.099
778.800	-12.629	0.100
778.900	-11.693	0.100
779.000	-27.160	0.100
779.100	-26.451	0.099
779.200	-27.300	0.100
779.300	-16.831	0.100
779.400	-28.941	0.100
779.500	-35.455	0.100
779.600	-25.653	0.099
779.700	-14.172	0.100
779.800	-31.175	0.100
779.900	-0.829	0.100
780.000	-30.340	0.100
780.100	-5.835	0.100
780.200	-18.888	0.100
780.300	14.783	0.100
780.400	4.709	0.100
780.500	6.763	0.100
780.600	19.976	0.100
780.700	12.717	0.100
780.800	26.609	0.100
780.900	29.182	0.100
781.000	23.274	0.100
781.100	22.490	0.100
781.200	27.730	0.100
781.300	34.420	0.100
781.400	31.678	0.099
781.500	13.984	0.100
781.600	12.729	0.100
781.700	26.376	0.100
781.800	12.775	0.100
781.900	28.404	0.100
782.000	31.855	0.100
782.100	23.165	0.100
782.200	8.514	0.100
782.300	12.743	0.100
782.400	23.772	0.100
782.500	17.173	0.100
782.600	5.764	0.099
782.700	27.173	0.100
782.800	7.045	0.099
782.900	28.544	0.100
783.000	6.190	0.100
783.100	19.618	0.100
783.200	11.199	0.100
783.300	13.744	0.100
783.400	30.436	0.100
783.500	5.348	0.100
783.600	16.321	0.100
783.700	9.184	0.100
783.800	18.909	0.100
783.900	3.978	0.099
784.000	-5.322	0.100
784.100	21.643	0.100
784.200	13.735	0.100
784.300	13.318	0.100
784.400	10.156	0.100
784.500	21.232	0.100
784.600	16.940	0.100
784.700	12.923	0.100
784.800	16.159	0.100
784.900	9.178	0.100
785.000	10.452	0.100
785.100	23.649	0.100
785.200	11.969	0.100
785.300	17.880	0.099
785.400	12.658	0.100
785.500	2.887	0.100
785.600	15.744	0.100
785.700	13.306	0.100
785.800	13.468	0.099
785.900	1.816	0.099
786.000	26.309	0.099
786.100	34.672	0.100
786.200	25.732	0.100
786.300	18.134	0.100
786.400	17.371	0.100
786.500	23.394	0.099
786.600	2.551	0.100
786.700	22.669	0.100
786.800	23.282	0.100
786.900	26.814	0.100
787.000	8.579	0.100
787.100	15.326	0.100
787.200	13.657	0.100
787.300	25.979	0.099
787.400	12.544	0.100
787.500	22.201	0.100
787.600	14.275	0.099
787.700	36.495	0.100
787.800	28.449	0.100
787.900	23.534	0.099
788.000	20.462	0.100
788.100	32.988	0.100
788.200	22.719	0.100
788.300	22.894	0.099
788.400	32.586	0.100
788.500	18.016	0.100
788.600	28.800	0.100
788.700	26.007	0.100
788.800	22.208	0.100
788.900	29.426	0.100
789.000	32.733	0.100
789.100	26.400	0.100
789.200	6.981	0.100
789.300	38.027	0.099
789.400	45.326	0.099
789.500	35.177	0.099
789.600	33.054	0.100
789.700	15.235	0.099
789.800	22.639	0.100
789.900	16.964	0.100
790.000	31.709	0.100
790.100	41.727	0.100
790.200	36.646	0.100
790.300	44.539	0.099
790.400	29.122	0.100
790.500	29.261	0.099
790.600	36.742	0.100
790.700	23.732	0.100
790.800	27.136	0.100
790.900	40.808	0.100
791.000	24.953	0.100
791.100	30.953	0.100
791.200	37.702	0.099
791.300	39.002	0.100
791.400	44.754	0.100
791.500	29.890	0.100
791.600	20.427	0.100
791.700	27.924	0.100
791.800	31.167	0.100
791.900	45.759	0.100
792.000	25.763	0.100
792.100	47.660	0.100
792.200	23.156	0.100
792.300	35.094	0.100
792.400	36.668	0.100
792.500	44.531	0.099
792.600	44.822	0.099
792.700	37.434	0.100
792.800	46.146	0.100
792.900	40.051	0.100
793.000	41.789	0.100
793.100	41.088	0.100
793.200	32.970	0.099
793.300	45.727	0.100
793.400	36.648	0.099
793.500	40.985	0.100
793.600	52.787	0.100
793.700	43.900	0.099
793.800	42.129	0.100
793.900	48.459	0.100
794.000	36.509	0.100
794.100	34.089	0.100
794.200	32.719	0.100
794.300	29.108	0.099
794.400	46.396	0.100
794.500	40.757	0.100
794.600	48.096	0.100
794.700	57.087	0.100
794.800	48.368	0.100
794.900	40.271	0.100
795.000	50.305	0.100
795.100	44.784	0.100
795.200	39.765	0.100
795.300	28.263	0.100
795.400	30.958	0.100
795.500	38.781	0.100
795.600	49.933	0.100
795.700	30.227	0.100
795.800	51.423	0.100
795.900	43.365	0.100
796.000	47.584	0.100
796.100	45.567	0.100
796.200	50.106	0.100
796.300	66.622	0.100
796.400	27.790	0.100
796.500	46.699	0.100
796.600	43.567	0.100
796.700	56.173	0.100
796.800	34.126	0.100
796.900	52.739	0.100
797.000	57.781	0.100
797.100	47.708	0.100
797.200	31.619	0.100
797.300	47.825	0.099
797.400	57.957	0.100
797.500	47.457	0.100
797.600	35.158	0.100
797.700	38.041	0.099
797.800	60.545	0.099
797.900	55.254	0.100
798.000	48.422	0.100
798.100	52.667	0.099
798.200	51.439	0.100
798.300	47.506	0.100
798.400	30.935	0.100
798.500	42.698	0.100
798.600	33.931	0.100
798.700	37.104	0.100
798.800	66.758	0.100
798.900	46.453	0.100
799.000	44.109	0.100
799.100	48.976	0.100
799.200	38.584	0.100
799.300	63.169	0.099
799.400	56.464	0.100
799.500	46.311	0.100
799.600	62.822	0.100
799.700	41.318	0.100
799.800	54.908	0.100
799.900	54.222	0.099
800.000	49.459	0.100
