time /s	I /nA	E /V
0.100	-8.280	0.099
0.200	-29.203	0.099
0.300	-12.165	0.099
0.400	-18.312	0.099
0.500	-20.435	0.100
0.600	-25.185	0.099
0.700	-18.741	0.099
0.800	-20.367	0.099
0.900	-27.993	0.099
1.000	-18.266	0.099
1.100	-8.555	0.099
1.200	-8.440	0.100
1.300	-28.364	0.100
1.400	-21.302	0.099
1.500	-8.260	0.099
1.600	-35.775	0.100
1.700	-23.508	0.099
1.800	-16.562	0.099
1.900	-10.878	0.099
2.000	-36.013	0.100
2.100	-18.231	0.099
2.200	-33.020	0.100
2.300	-19.451	0.099
2.400	-15.680	0.099
2.500	-13.607	0.099
2.600	-18.065	0.099
2.700	-15.442	0.099
2.800	-27.988	0.099
2.900	-20.962	0.099
3.000	-26.002	0.099
3.100	-16.989	0.099
3.200	-18.087	0.099
3.300	-24.915	0.100
3.400	-12.117	0.100
3.500	-32.146	0.099
3.600	-35.788	0.099
3.700	-15.478	0.099
3.800	-15.599	0.099
3.900	-17.660	0.099
4.000	-40.376	0.099
4.100	-22.555	0.099
4.200	-16.357	0.099
4.300	-33.363	0.099
4.400	-2.070	0.100
4.500	-24.872	0.099
4.600	-18.932	0.099
4.700	-14.235	0.100
4.800	-17.030	0.100
4.900	-23.867	0.099
5.000	-17.832	0.099
5.100	-33.704	0.099
5.200	-4.101	0.099
5.300	-4.060	0.099
5.400	-18.778	0.099
5.500	-13.041	0.100
5.600	-26.735	0.099
5.700	-25.172	0.099
5.800	-19.902	0.100
5.900	-7.091	0.100
6.000	-21.678	0.099
6.100	-30.884	0.099
6.200	-9.791	0.100
6.300	-20.756	0.100
6.400	-30.203	0.099
6.500	-26.728	0.100
6.600	-19.376	0.099
6.700	-12.234	0.099
6.800	-20.153	0.100
6.900	-11.736	0.100
7.000	-23.402	0.099
7.100	-18.399	0.099
7.200	-12.678	0.100
7.300	-4.388	0.099
7.400	-24.110	0.099
7.500	-28.857	0.099
7.600	-4.351	0.100
7.700	-1.945	0.100
7.800	-35.959	0.099
7.900	-12.473	0.100
8.000	-18.339	0.100
8.100	-7.568	0.099
8.200	-24.486	0.100
8.300	-17.140	0.100
8.400	-31.612	0.100
8.500	-18.731	0.099
8.600	-7.824	0.099
8.700	-6.158	0.100
8.800	-27.312	0.099
8.900	-17.509	0.100
9.000	-11.783	0.100
9.100	-25.981	0.100
9.200	-29.217	0.099
9.300	-9.622	0.099
9.400	-13.290	0.100
9.500	-21.643	0.099
9.600	-11.077	0.099
9.700	-13.426	0.099
9.800	-29.227	0.099
9.900	-9.104	0.099
10.000	-2.057	0.099
10.100	-19.168	0.099
10.200	-5.102	0.099
10.300	-19.123	0.099
10.400	-16.334	0.099
10.500	-16.668	0.100
10.600	0.310	0.100
10.700	-35.073	0.099
10.800	-10.667	0.100
10.900	-12.335	0.099
11.000	-31.078	0.100
11.100	-5.387	0.099
11.200	-2.401	0.100
11.300	-24.229	0.099
11.400	-23.051	0.099
11.500	-19.477	0.099
11.600	-20.605	0.099
11.700	-17.320	0.099
11.800	-10.566	0.100
11.900	-9.792	0.099
12.000	-27.502	0.100
12.100	-29.336	0.099
12.200	-33.121	0.099
12.300	-18.582	0.099
12.400	-18.947	0.099
12.500	-14.944	0.099
12.600	-18.931	0.099
12.700	-25.756	0.099
12.800	-17.298	0.099
12.900	-21.502	0.099
13.000	-10.984	0.099
13.100	-26.605	0.100
13.200	-15.004	0.099
13.300	-10.440	0.099
13.400	-10.262	0.100
13.500	-21.962	0.100
13.600	-21.405	0.100
13.700	-37.023	0.099
13.800	-21.520	0.099
13.900	-8.727	0.100
14.000	-15.246	0.099
14.100	-5.814	0.099
14.200	-5.266	0.099
14.300	-20.025	0.099
14.400	-23.763	0.099
14.500	-10.925	0.100
14.600	-23.827	0.100
14.700	-14.425	0.100
14.800	-19.332	0.099
14.900	-31.365	0.099
15.000	-10.904	0.100
15.100	-8.387	0.100
15.200	-16.509	0.100
15.300	-19.714	0.099
15.400	-26.297	0.100
15.500	-22.285	0.099
15.600	-26.580	0.100
15.700	-9.445	0.099
15.800	-18.368	0.100
15.900	-14.922	0.100
16.000	-9.249	0.100
16.100	-21.205	0.099
16.200	-15.635	0.099
16.300	-17.155	0.100
16.400	-22.367	0.100
16.500	-23.734	0.100
16.600	-24.927	0.100
16.700	-6.769	0.100
16.800	-16.944	0.100
16.900	-13.113	0.100
17.000	-19.707	0.100
17.100	-25.961	0.100
17.200	-8.336	0.099
17.300	-20.167	0.099
17.400	-16.993	0.100
17.500	-28.662	0.099
17.600	-25.691	0.100
17.700	-19.052	0.100
17.800	-17.370	0.100
17.900	-7.037	0.099
18.000	-27.944	0.099
18.100	-20.828	0.100
18.200	-16.511	0.099
18.300	-22.815	0.100
18.400	-16.956	0.100
18.500	-1.459	0.100
18.600	-26.288	0.100
18.700	-17.154	0.099
18.800	-4.089	0.099
18.900	-4.881	0.099
19.000	-27.937	0.099
19.100	-25.688	0.100
19.200	-11.165	0.100
19.300	-16.260	0.099
19.400	-22.015	0.100
19.500	-17.227	0.100
19.600	-26.120	0.099
19.700	-16.373	0.099
19.800	-8.838	0.099
19.900	-18.656	0.100
20.000	-19.413	0.100
20.100	-18.279	0.099
20.200	-8.495	0.099
20.300	-39.551	0.099
20.400	-0.849	0.100
20.500	0.418	0.099
20.600	-33.166	0.100
20.700	-15.985	0.100
20.800	-18.332	0.100
20.900	-13.793	0.099
21.000	-16.105	0.100
21.100	-19.199	0.099
21.200	-16.253	0.099
21.300	-8.265	0.099
21.400	-18.533	0.099
21.500	-19.056	0.100
21.600	-22.043	0.099
21.700	-9.378	0.100
21.800	-10.256	0.099
21.900	-20.739	0.099
22.000	-29.077	0.100
22.100	-1.690	0.099
22.200	-22.732	0.099
22.300	-19.722	0.100
22.400	-4.027	0.099
22.500	-17.299	0.100
22.600	-10.527	0.100
22.700	-23.995	0.099
22.800	-4.863	0.099
22.900	-15.920	0.100
23.000	-32.933	0.099
23.100	-27.039	0.099
23.200	-10.561	0.100
23.300	-33.900	0.100
23.400	-18.730	0.099
23.500	-20.653	0.099
23.600	-23.606	0.100
23.700	-34.976	0.100
23.800	-7.216	0.099
23.900	-11.037	0.100
24.000	-29.774	0.099
24.100	-14.686	0.099
24.200	-21.893	0.100
24.300	-27.865	0.099
24.400	4.341	0.099
24.500	-12.942	0.100
24.600	-17.317	0.099
24.700	-22.855	0.099
24.800	-16.240	0.100
24.900	-12.308	0.100
25.000	-12.069	0.099
25.100	-15.884	0.100
25.200	6.100	0.100
25.300	-17.288	0.100
25.400	-24.111	0.100
25.500	-17.333	0.099
25.600	-17.572	0.100
25.700	-19.003	0.099
25.800	-24.012	0.100
25.900	-28.972	0.100
26.000	-17.099	0.099
26.100	-19.474	0.100
26.200	-12.464	0.099
26.300	-19.734	0.100
26.400	-13.350	0.099
26.500	-11.831	0.100
26.600	-19.835	0.100
26.700	-17.899	0.099
26.800	-26.034	0.100
26.900	-11.701	0.100
27.000	-10.314	0.100
27.100	-16.761	0.100
27.200	-17.810	0.100
27.300	-12.077	0.100
27.400	-17.155	0.099
27.500	-6.682	0.100
27.600	-20.011	0.099
27.700	-27.449	0.100
27.800	-21.931	0.099
27.900	-5.296	0.099
28.000	-28.539	0.099
28.100	-28.448	0.100
28.200	-25.984	0.099
28.300	-7.641	0.099
28.400	-5.404	0.100
28.500	-32.379	0.099
28.600	-23.492	0.099
28.700	-22.904	0.100
28.800	-22.445	0.099
28.900	-27.097	0.100
29.000	-18.544	0.099
29.100	-21.654	0.100
29.200	-20.000	0.099
29.300	-18.972	0.100
29.400	-0.510	0.100
29.500	-23.488	0.099
29.600	-11.928	0.100
29.700	-31.940	0.099
29.800	-25.889	0.100
29.900	-1.508	0.100
30.000	13.522	0.099
30.100	-3.716	0.100
30.200	9.377	0.100
30.300	10.459	0.099
30.400	22.834	0.099
30.500	29.304	0.099
30.600	28.581	0.100
30.700	24.671	0.099
30.800	31.600	0.099
30.900	33.948	0.099
31.000	27.364	0.100
31.100	48.827	0.100
31.200	34.444	0.099
31.300	29.483	0.099
31.400	32.502	0.100
31.500	39.700	0.099
31.600	15.885	0.099
31.700	32.364	0.099
31.800	23.124	0.099
31.900	28.623	0.100
32.000	32.699	0.100
32.100	32.334	0.099
32.200	32.204	0.099
32.300	24.479	0.099
32.400	34.530	0.099
32.500	25.427	0.100
32.600	23.614	0.099
32.700	23.556	0.099
32.800	28.763	0.099
32.900	25.155	0.099
33.000	26.768	0.100
33.100	20.298	0.100
33.200	32.005	0.099
33.300	26.744	0.099
33.400	1.762	0.100
33.500	34.402	0.099
33.600	18.547	0.099
33.700	26.139	0.099
33.800	-1.427	0.099
33.900	34.890	0.100
34.000	11.108	0.099
34.100	26.127	0.099
34.200	35.762	0.099
34.300	20.941	0.100
34.400	14.307	0.100
34.500	12.437	0.100
34.600	26.994	0.099
34.700	15.402	0.099
34.800	9.071	0.099
34.900	21.931	0.100
35.000	23.173	0.099
35.100	19.089	0.099
35.200	20.514	0.100
35.300	22.595	0.099
35.400	25.248	0.099
35.500	21.433	0.100
35.600	28.826	0.100
35.700	25.179	0.100
35.800	30.364	0.099
35.900	20.630	0.100
36.000	21.115	0.099
36.100	19.428	0.100
36.200	43.537	0.100
36.300	32.679	0.099
36.400	21.192	0.099
36.500	12.224	0.099
36.600	22.922	0.099
36.700	28.191	0.099
36.800	40.408	0.100
36.900	32.186	0.100
37.000	25.322	0.099
37.100	26.152	0.100
37.200	32.743	0.099
37.300	23.434	0.099
37.400	27.004	0.100
37.500	33.949	0.099
37.600	5.020	0.100
37.700	29.166	0.100
37.800	38.290	0.099
37.900	46.661	0.099
38.000	18.574	0.100
38.100	31.769	0.100
38.200	41.378	0.100
38.300	41.739	0.100
38.400	43.043	0.100
38.500	19.721	0.099
38.600	37.946	0.100
38.700	41.109	0.099
38.800	50.933	0.099
38.900	23.372	0.099
39.000	50.453	0.100
39.100	29.608	0.099
39.200	31.077	0.100
39.300	27.418	0.100
39.400	36.990	0.099
39.500	42.130	0.100
39.600	50.515	0.099
39.700	18.620	0.099
39.800	31.431	0.099
39.900	48.438	0.100
40.000	32.828	0.100
40.100	33.765	0.099
40.200	40.943	0.099
40.300	45.322	0.099
40.400	41.354	0.099
40.500	34.759	0.100
40.600	34.163	0.099
40.700	42.647	0.099
40.800	34.281	0.099
40.900	50.888	0.100
41.000	48.712	0.099
41.100	54.157	0.099
41.200	51.839	0.100
41.300	37.085	0.100
41.400	26.834	0.100
41.500	37.097	0.099
41.600	30.591	0.099
41.700	50.489	0.099
41.800	38.840	0.099
41.900	54.368	0.099
42.000	31.235	0.099
42.100	40.044	0.099
42.200	46.335	0.099
42.300	27.667	0.099
42.400	33.543	0.100
42.500	60.508	0.099
42.600	43.917	0.100
42.700	37.664	0.099
42.800	38.762	0.099
42.900	41.317	0.099
43.000	41.456	0.099
43.100	41.691	0.100
43.200	42.790	0.099
43.300	52.164	0.099
43.400	45.325	0.100
43.500	50.732	0.099
43.600	49.669	0.099
43.700	56.064	0.099
43.800	26.508	0.099
43.900	59.781	0.099
44.000	48.510	0.099
44.100	49.792	0.099
44.200	39.728	0.099
44.300	38.256	0.100
44.400	51.742	0.099
44.500	53.390	0.099
44.600	47.885	0.099
44.700	33.375	0.099
44.800	54.542	0.099
44.900	53.523	0.099
45.000	42.635	0.100
45.100	55.797	0.099
45.200	43.160	0.100
45.300	27.264	0.100
45.400	55.907	0.099
45.500	49.582	0.099
45.600	44.645	0.099
45.700	41.304	0.099
45.800	40.751	0.099
45.900	50.086	0.100
46.000	45.028	0.100
46.100	45.349	0.099
46.200	54.292	0.099
46.300	44.506	0.100
46.400	49.102	0.099
46.500	40.583	0.099
46.600	46.248	0.099
46.700	42.310	0.100
46.800	46.835	0.099
46.900	55.024	0.099
47.000	40.312	0.099
47.100	38.046	0.099
47.200	41.830	0.099
47.300	55.883	0.099
47.400	47.541	0.100
47.500	48.011	0.099
47.600	41.213	0.099
47.700	51.733	0.099
47.800	46.233	0.099
47.900	40.670	0.100
48.000	46.089	0.100
48.100	43.633	0.099
48.200	43.625	0.099
48.300	56.386	0.099
48.400	53.063	0.099
48.500	53.268	0.099
48.600	44.916	0.099
48.700	64.227	0.099
48.800	42.447	0.100
48.900	36.814	0.100
49.000	66.197	0.100
49.100	54.704	0.099
49.200	50.890	0.099
49.300	43.140	0.099
49.400	34.962	0.100
49.500	53.378	0.100
49.600	62.136	0.100
49.700	43.131	0.099
49.800	36.141	0.099
49.900	45.014	0.099
50.000	35.570	0.100
50.100	36.197	0.099
50.200	40.889	0.099
50.300	56.142	0.099
50.400	63.121	0.099
50.500	34.591	0.099
50.600	41.131	0.100
50.700	52.495	0.099
50.800	51.001	0.099
50.900	38.993	0.099
51.000	47.769	0.099
51.100	50.885	0.099
51.200	39.427	0.099
51.300	53.996	0.099
51.400	50.732	0.099
51.500	49.212	0.099
51.600	49.443	0.100
51.700	41.589	0.099
51.800	60.212	0.099
51.900	38.513	0.099
52.000	51.439	0.099
52.100	42.987	0.099
52.200	54.932	0.099
52.300	57.691	0.099
52.400	30.296	0.099
52.500	52.265	0.099
52.600	51.439	0.100
52.700	51.671	0.100
52.800	57.384	0.099
52.900	51.944	0.099
53.000	63.460	0.099
53.100	35.128	0.099
53.200	24.420	0.099
53.300	61.288	0.099
53.400	52.731	0.099
53.500	37.541	0.099
53.600	47.463	0.099
53.700	32.299	0.099
53.800	53.121	0.099
53.900	50.531	0.099
54.000	48.927	0.100
54.100	56.995	0.099
54.200	38.753	0.099
54.300	59.279	0.099
54.400	42.778	0.099
54.500	36.886	0.099
54.600	50.983	0.099
54.700	52.960	0.099
54.800	53.815	0.099
54.900	73.066	0.100
55.000	46.380	0.099
55.100	43.116	0.099
55.200	50.835	0.099
55.300	74.738	0.099
55.400	37.989	0.099
55.500	38.907	0.100
55.600	42.002	0.099
55.700	38.787	0.099
55.800	48.060	0.099
55.900	46.629	0.099
56.000	51.262	0.099
56.100	43.112	0.099
56.200	33.601	0.100
56.300	43.089	0.099
56.400	54.404	0.099
56.500	56.935	0.099
56.600	22.044	0.099
56.700	28.321	0.100
56.800	64.171	0.099
56.900	37.929	0.099
57.000	55.107	0.099
57.100	33.847	0.099
57.200	59.368	0.099
57.300	48.474	0.099
57.400	59.271	0.099
57.500	44.015	0.099
57.600	54.296	0.099
57.700	33.659	0.099
57.800	30.994	0.099
57.900	47.868	0.099
58.000	50.158	0.099
58.100	45.173	0.099
58.200	44.821	0.099
58.300	52.905	0.099
58.400	55.834	0.100
58.500	57.847	0.099
58.600	59.985	0.099
58.700	61.201	0.099
58.800	31.826	0.099
58.900	50.104	0.099
59.000	50.439	0.100
59.100	46.985	0.099
59.200	60.535	0.099
59.300	46.853	0.099
59.400	58.156	0.099
59.500	50.983	0.099
59.600	51.647	0.099
59.700	46.831	0.099
59.800	53.923	0.099
59.900	47.660	0.099
60.000	52.891	0.099
60.100	39.226	0.100
60.200	55.640	0.099
60.300	42.171	0.099
60.400	42.671	0.099
60.500	49.201	0.099
60.600	56.378	0.099
60.700	53.475	0.099
60.800	62.786	0.099
60.900	51.171	0.099
61.000	48.355	0.099
61.100	34.503	0.099
61.200	48.158	0.099
61.300	45.780	0.099
61.400	46.535	0.099
61.500	53.588	0.099
61.600	55.982	0.099
61.700	55.285	0.099
61.800	56.712	0.099
61.900	56.174	0.100
62.000	54.882	0.099
62.100	56.025	0.099
62.200	36.787	0.099
62.300	51.899	0.099
62.400	60.343	0.099
62.500	65.907	0.100
62.600	49.505	0.099
62.700	44.575	0.099
62.800	49.027	0.099
62.900	57.489	0.100
63.000	58.809	0.100
63.100	57.423	0.099
63.200	50.061	0.099
63.300	45.056	0.099
63.400	54.068	0.099
63.500	70.271	0.099
63.600	55.703	0.099
63.700	40.798	0.099
63.800	50.013	0.099
63.900	57.744	0.100
64.000	58.713	0.099
64.100	46.437	0.099
64.200	46.708	0.099
64.300	65.372	0.099
64.400	56.550	0.099
64.500	50.691	0.099
64.600	47.930	0.099
64.700	58.924	0.099
64.800	58.104	0.099
64.900	42.476	0.099
65.000	61.786	0.099
65.100	66.755	0.099
65.200	69.309	0.099
65.300	62.317	0.099
65.400	48.698	0.099
65.500	61.913	0.099
65.600	65.306	0.099
65.700	56.129	0.099
65.800	50.413	0.100
65.900	50.159	0.099
66.000	65.248	0.099
66.100	49.387	0.099
66.200	57.869	0.099
66.300	59.771	0.099
66.400	60.056	0.099
66.500	48.191	0.099
66.600	63.264	0.099
66.700	60.800	0.099
66.800	58.435	0.100
66.900	49.207	0.099
67.000	56.331	0.099
67.100	55.495	0.099
67.200	47.098	0.099
67.300	63.348	0.100
67.400	69.842	0.099
67.500	48.963	0.099
67.600	61.703	0.099
67.700	58.339	0.099
67.800	46.936	0.099
67.900	56.276	0.099
68.000	57.806	0.100
68.100	61.854	0.099
68.200	61.657	0.099
68.300	58.893	0.099
68.400	52.977	0.099
68.500	62.087	0.099
68.600	56.888	0.099
68.700	49.419	0.099
68.800	55.476	0.099
68.900	52.311	0.099
69.000	59.119	0.099
69.100	67.643	0.099
69.200	56.772	0.099
69.300	59.772	0.099
69.400	50.736	0.099
69.500	72.423	0.099
69.600	77.795	0.099
69.700	53.846	0.100
69.800	59.784	0.099
69.900	47.279	0.100
70.000	71.658	0.099
70.100	63.160	0.099
70.200	58.012	0.099
70.300	58.139	0.099
70.400	74.719	0.099
70.500	41.498	0.099
70.600	43.028	0.099
70.700	69.598	0.099
70.800	67.066	0.099
70.900	61.958	0.099
71.000	68.787	0.099
71.100	75.594	0.099
71.200	79.066	0.099
71.300	46.643	0.099
71.400	69.117	0.099
71.500	62.244	0.099
71.600	64.999	0.099
71.700	71.074	0.100
71.800	60.274	0.099
71.900	46.925	0.099
72.000	52.159	0.100
72.100	69.844	0.099
72.200	73.398	0.100
72.300	74.145	0.099
72.400	63.475	0.099
72.500	57.872	0.099
72.600	73.575	0.099
72.700	66.799	0.099
72.800	50.923	0.100
72.900	81.252	0.099
73.000	67.533	0.099
73.100	51.324	0.099
73.200	59.248	0.099
73.300	56.509	0.099
73.400	48.516	0.100
73.500	55.405	0.100
73.600	85.403	0.100
73.700	51.684	0.099
73.800	71.782	0.099
73.900	75.243	0.099
74.000	85.460	0.099
74.100	73.008	0.100
74.200	67.620	0.100
74.300	57.831	0.099
74.400	51.946	0.099
74.500	64.107	0.100
74.600	78.366	0.100
74.700	84.365	0.099
74.800	46.961	0.099
74.900	51.816	0.099
75.000	93.832	0.099
75.100	59.040	0.099
75.200	68.006	0.099
75.300	72.834	0.100
75.400	46.117	0.099
75.500	57.688	0.099
75.600	43.156	0.099
75.700	65.612	0.099
75.800	73.195	0.099
75.900	72.467	0.099
76.000	67.215	0.100
76.100	69.232	0.100
76.200	81.275	0.099
76.300	55.664	0.099
76.400	69.025	0.099
76.500	68.691	0.099
76.600	60.193	0.099
76.700	73.506	0.099
76.800	68.553	0.099
76.900	58.820	0.099
77.000	83.370	0.099
77.100	50.869	0.099
77.200	44.299	0.099
77.300	78.142	0.099
77.400	70.280	0.099
77.500	69.397	0.100
77.600	60.901	0.100
77.700	72.759	0.100
77.800	68.494	0.100
77.900	64.832	0.099
78.000	71.010	0.100
78.100	65.635	0.099
78.200	64.592	0.099
78.300	75.436	0.100
78.400	66.602	0.100
78.500	60.171	0.100
78.600	88.979	0.100
78.700	72.964	0.100
78.800	57.698	0.099
78.900	52.751	0.099
79.000	63.373	0.099
79.100	74.217	0.100
79.200	69.714	0.100
79.300	75.622	0.099
79.400	62.457	0.099
79.500	74.135	0.099
79.600	51.269	0.100
79.700	86.371	0.100
79.800	67.993	0.099
79.900	60.812	0.099
80.000	65.447	0.099
80.100	61.504	0.099
80.200	96.061	0.099
80.300	69.979	0.099
80.400	67.494	0.099
80.500	65.985	0.100
80.600	76.200	0.099
80.700	72.464	0.099
80.800	67.490	0.099
80.900	69.769	0.100
81.000	69.452	0.100
81.100	44.788	0.100
81.200	78.288	0.099
81.300	79.998	0.100
81.400	72.315	0.100
81.500	90.974	0.100
81.600	82.718	0.100
81.700	71.893	0.100
81.800	53.987	0.100
81.900	70.378	0.100
82.000	79.602	0.100
82.100	78.095	0.100
82.200	72.885	0.100
82.300	66.127	0.100
82.400	62.983	0.100
82.500	69.812	0.100
82.600	79.279	0.100
82.700	69.543	0.100
82.800	60.481	0.100
82.900	73.289	0.100
83.000	81.227	0.100
83.100	66.989	0.100
83.200	70.514	0.099
83.300	70.643	0.100
83.400	76.326	0.100
83.500	80.883	0.100
83.600	64.965	0.099
83.700	63.279	0.099
83.800	63.982	0.100
83.900	69.927	0.099
84.000	84.441	0.099
84.100	70.096	0.100
84.200	65.726	0.099
84.300	70.825	0.100
84.400	67.536	0.099
84.500	76.927	0.099
84.600	73.127	0.099
84.700	58.507	0.099
84.800	72.816	0.099
84.900	66.019	0.100
85.000	78.467	0.099
85.100	85.339	0.099
85.200	69.089	0.099
85.300	62.848	0.099
85.400	80.906	0.099
85.500	34.745	0.099
85.600	73.240	0.099
85.700	84.740	0.099
85.800	87.383	0.099
85.900	66.954	0.099
86.000	58.930	0.099
86.100	68.717	0.099
86.200	69.112	0.100
86.300	77.089	0.100
86.400	83.710	0.099
86.500	61.686	0.099
86.600	80.182	0.099
86.700	71.915	0.099
86.800	83.204	0.099
86.900	79.970	0.099
87.000	65.059	0.100
87.100	85.798	0.099
87.200	71.946	0.099
87.300	88.681	0.100
87.400	82.284	0.100
87.500	67.926	0.099
87.600	74.410	0.100
87.700	67.201	0.099
87.800	68.555	0.099
87.900	73.672	0.099
88.000	72.696	0.100
88.100	60.538	0.100
88.200	67.632	0.099
88.300	84.500	0.099
88.400	63.678	0.099
88.500	71.322	0.099
88.600	80.812	0.100
88.700	73.690	0.100
88.800	67.272	0.099
88.900	79.156	0.099
89.000	69.357	0.099
89.100	74.540	0.100
89.200	65.290	0.099
89.300	71.134	0.100
89.400	73.485	0.100
89.500	91.837	0.099
89.600	78.505	0.099
89.700	78.153	0.100
89.800	81.531	0.100
89.900	71.951	0.100
90.000	53.247	0.099
90.100	66.602	0.100
90.200	53.116	0.100
90.300	53.986	0.100
90.400	61.250	0.100
90.500	33.168	0.100
90.600	20.004	0.099
90.700	18.768	0.100
90.800	12.285	0.099
90.900	24.431	0.099
91.000	1.726	0.099
91.100	14.812	0.100
91.200	-5.716	0.100
91.300	-26.433	0.099
91.400	1.305	0.099
91.500	-13.729	0.099
91.600	-22.557	0.099
91.700	-22.238	0.100
91.800	-32.703	0.099
91.900	-41.750	0.100
92.000	-26.201	0.099
92.100	-40.987	0.099
92.200	-33.138	0.100
92.300	-49.634	0.099
92.400	-41.589	0.100
92.500	-34.495	0.100
92.600	-47.510	0.099
92.700	-21.766	0.100
92.800	-47.128	0.099
92.900	-41.126	0.099
93.000	-33.046	0.099
93.100	-48.423	0.099
93.200	-47.507	0.099
93.300	-50.122	0.099
93.400	-44.314	0.099
93.500	-49.952	0.099
93.600	-33.482	0.099
93.700	-43.368	0.100
93.800	-38.499	0.100
93.900	-58.045	0.099
94.000	-39.299	0.099
94.100	-43.628	0.099
94.200	-53.924	0.099
94.300	-32.916	0.099
94.400	-29.273	0.100
94.500	-29.622	0.100
94.600	-50.751	0.100
94.700	-43.122	0.099
94.800	-21.006	0.099
94.900	-49.883	0.099
95.000	-46.010	0.100
95.100	-9.115	0.100
95.200	-23.075	0.100
95.300	-19.340	0.099
95.400	-46.117	0.099
95.500	-30.507	0.099
95.600	-44.479	0.099
95.700	-26.052	0.100
95.800	-44.850	0.100
95.900	-19.699	0.100
96.000	-19.934	0.099
96.100	-29.596	0.099
96.200	-50.091	0.099
96.300	-41.192	0.099
96.400	-20.324	0.099
96.500	-22.707	0.100
96.600	-30.748	0.100
96.700	-30.884	0.099
96.800	-32.319	0.100
96.900	-37.603	0.099
97.000	-34.163	0.099
97.100	-21.034	0.100
97.200	-27.115	0.099
97.300	-26.518	0.099
97.400	-29.380	0.099
97.500	-35.238	0.099
97.600	-23.442	0.099
97.700	-20.666	0.100
97.800	-22.965	0.100
97.900	-24.496	0.099
98.000	-39.161	0.099
98.100	-20.940	0.099
98.200	-25.465	0.099
98.300	-26.371	0.099
98.400	-17.439	0.099
98.500	-23.858	0.099
98.600	-21.572	0.100
98.700	-19.235	0.099
98.800	-44.147	0.099
98.900	-17.772	0.100
99.000	-26.253	0.100
99.100	-18.245	0.099
99.200	-18.663	0.099
99.300	-23.315	0.099
99.400	-26.238	0.100
99.500	-15.439	0.100
99.600	-24.913	0.099
99.700	-38.022	0.100
99.800	-27.895	0.100
99.900	-26.821	0.100
100.000	-30.872	0.099
100.100	-33.147	0.099
100.200	-28.524	0.100
100.300	-20.147	0.099
100.400	-31.417	0.100
100.500	-26.574	0.099
100.600	-12.972	0.099
100.700	-16.561	0.099
100.800	-27.264	0.099
100.900	-36.917	0.099
101.000	-28.448	0.100
101.100	-26.986	0.100
101.200	-21.208	0.099
101.300	-29.929	0.100
101.400	-24.475	0.099
101.500	-25.664	0.099
101.600	-21.355	0.100
101.700	-30.872	0.100
101.800	-26.022	0.099
101.900	-23.682	0.099
102.000	-23.285	0.099
102.100	-15.310	0.100
102.200	-38.753	0.099
102.300	-33.033	0.100
102.400	-15.020	0.099
102.500	-39.537	0.100
102.600	-13.688	0.099
102.700	-38.685	0.099
102.800	-29.537	0.099
102.900	-31.912	0.099
103.000	-27.709	0.100
103.100	-31.429	0.100
103.200	-20.927	0.099
103.300	-20.179	0.099
103.400	-27.847	0.099
103.500	-29.182	0.099
103.600	-34.443	0.100
103.700	-38.650	0.100
103.800	-22.037	0.100
103.900	-32.775	0.099
104.000	-15.000	0.100
104.100	-23.592	0.099
104.200	-32.734	0.099
104.300	-30.597	0.099
104.400	-26.913	0.099
104.500	-34.478	0.100
104.600	-30.640	0.099
104.700	-38.247	0.099
104.800	-19.967	0.099
104.900	-25.747	0.099
105.000	-26.412	0.100
105.100	-37.578	0.099
105.200	-31.482	0.100
105.300	-15.407	0.099
105.400	-21.375	0.100
105.500	-21.107	0.099
105.600	-31.530	0.100
105.700	-21.243	0.100
105.800	-28.725	0.099
105.900	-22.497	0.099
106.000	-41.774	0.099
106.100	-25.160	0.099
106.200	-19.428	0.099
106.300	-32.097	0.100
106.400	-22.355	0.099
106.500	-39.967	0.099
106.600	-31.004	0.100
106.700	-27.355	0.099
106.800	-27.353	0.099
106.900	-26.956	0.099
107.000	-29.172	0.100
107.100	-31.982	0.099
107.200	-30.300	0.100
107.300	-33.939	0.099
107.400	-23.206	0.099
107.500	-15.308	0.099
107.600	-27.155	0.099
107.700	-21.491	0.100
107.800	-24.847	0.099
107.900	-32.648	0.099
108.000	-24.667	0.099
108.100	-27.585	0.099
108.200	-17.953	0.099
108.300	-26.735	0.100
108.400	-43.543	0.100
108.500	-32.165	0.100
108.600	-19.234	0.099
108.700	-40.318	0.099
108.800	-44.313	0.099
108.900	-25.951	0.099
109.000	-44.665	0.099
109.100	-16.781	0.100
109.200	-20.906	0.100
109.300	-28.016	0.099
109.400	-28.307	0.099
109.500	-22.318	0.099
109.600	-20.645	0.099
109.700	-28.172	0.099
109.800	-32.846	0.099
109.900	-23.981	0.100
110.000	-25.850	0.099
110.100	-20.295	0.099
110.200	-26.627	0.099
110.300	-45.798	0.100
110.400	-17.455	0.100
110.500	-35.877	0.099
110.600	-22.688	0.100
110.700	-32.122	0.099
110.800	-25.109	0.099
110.900	-29.749	0.099
111.000	-40.312	0.100
111.100	-30.878	0.100
111.200	-32.397	0.100
111.300	-31.892	0.099
111.400	-29.685	0.099
111.500	-31.812	0.099
111.600	-36.288	0.099
111.700	-31.068	0.100
111.800	-19.230	0.099
111.900	-30.205	0.099
112.000	-42.983	0.099
112.100	-33.137	0.099
112.200	-14.185	0.099
112.300	-26.727	0.100
112.400	-34.134	0.100
112.500	-23.393	0.099
112.600	-30.776	0.100
112.700	-40.218	0.099
112.800	-25.645	0.100
112.900	-27.164	0.099
113.000	-28.299	0.099
113.100	-21.027	0.100
113.200	-24.841	0.100
113.300	-34.864	0.100
113.400	-36.541	0.099
113.500	-31.311	0.099
113.600	-24.764	0.099
113.700	-31.562	0.100
113.800	-23.349	0.099
113.900	-15.741	0.099
114.000	-42.978	0.099
114.100	-29.826	0.099
114.200	-16.847	0.099
114.300	-18.599	0.099
114.400	-39.507	0.099
114.500	-15.675	0.099
114.600	-29.295	0.099
114.700	-21.416	0.099
114.800	-46.549	0.099
114.900	-35.894	0.099
115.000	-25.475	0.099
115.100	-31.267	0.099
115.200	-32.803	0.099
115.300	-30.644	0.099
115.400	-21.280	0.099
115.500	-32.978	0.099
115.600	-33.065	0.099
115.700	-26.104	0.099
115.800	-21.060	0.100
115.900	-33.325	0.099
116.000	-28.488	0.099
116.100	-29.017	0.099
116.200	-28.145	0.099
116.300	-28.568	0.099
116.400	-16.961	0.099
116.500	-36.042	0.099
116.600	-31.153	0.099
116.700	-22.839	0.100
116.800	-11.538	0.099
116.900	-33.066	0.099
117.000	-23.005	0.099
117.100	-36.207	0.099
117.200	-32.177	0.099
117.300	-28.088	0.099
117.400	-29.647	0.099
117.500	-33.203	0.099
117.600	-40.474	0.099
117.700	-31.895	0.099
117.800	-23.237	0.099
117.900	-51.254	0.099
118.000	-22.124	0.100
118.100	-21.996	0.099
118.200	-20.340	0.099
118.300	-38.532	0.099
118.400	-21.371	0.099
118.500	-38.299	0.100
118.600	-18.969	0.099
118.700	-25.270	0.099
118.800	-26.173	0.099
118.900	-31.814	0.099
119.000	-19.147	0.099
119.100	-28.782	0.099
119.200	-22.257	0.099
119.300	-33.638	0.100
119.400	-21.945	0.099
119.500	-32.634	0.099
119.600	-40.903	0.099
119.700	-21.869	0.099
119.800	-44.408	0.099
119.900	-21.202	0.099
120.000	-15.592	0.099
120.100	-15.612	0.100
120.200	-19.634	0.099
120.300	-32.713	0.099
120.400	-30.451	0.099
120.500	-39.945	0.099
120.600	-21.691	0.099
120.700	-26.918	0.099
120.800	-31.077	0.099
120.900	-20.241	0.099
121.000	-47.599	0.099
121.100	-29.199	0.099
121.200	-30.954	0.100
121.300	-16.150	0.099
121.400	-25.159	0.099
121.500	-18.544	0.100
121.600	-22.716	0.099
121.700	-38.226	0.099
121.800	-15.649	0.100
121.900	-32.118	0.099
122.000	-27.775	0.099
122.100	-20.461	0.099
122.200	-20.417	0.099
122.300	-39.425	0.099
122.400	-27.607	0.100
122.500	-43.401	0.099
122.600	-23.449	0.099
122.700	-8.974	0.099
122.800	-18.048	0.099
122.900	-42.315	0.099
123.000	-37.740	0.099
123.100	-33.034	0.099
123.200	-17.902	0.099
123.300	-16.485	0.099
123.400	-28.796	0.099
123.500	-21.690	0.100
123.600	-19.807	0.099
123.700	-36.875	0.099
123.800	-32.410	0.099
123.900	-25.051	0.099
124.000	-32.517	0.099
124.100	-30.986	0.099
124.200	-12.167	0.099
124.300	-33.612	0.099
124.400	-24.229	0.099
124.500	-35.190	0.099
124.600	-20.157	0.099
124.700	-16.898	0.099
124.800	-26.180	0.099
124.900	-32.122	0.099
125.000	-46.548	0.099
125.100	-31.633	0.099
125.200	-15.038	0.099
125.300	-34.714	0.099
125.400	-27.115	0.099
125.500	-32.132	0.099
125.600	-22.016	0.099
125.700	-42.713	0.099
125.800	-8.746	0.099
125.900	-30.505	0.099
126.000	-38.830	0.099
126.100	-22.676	0.099
126.200	-18.663	0.099
126.300	-18.260	0.099
126.400	-29.583	0.099
126.500	-17.897	0.099
126.600	-13.150	0.099
126.700	-34.819	0.099
126.800	-29.101	0.099
126.900	-29.826	0.099
127.000	-23.257	0.099
127.100	-51.785	0.099
127.200	-7.226	0.099
127.300	-35.143	0.099
127.400	-30.586	0.099
127.500	-39.145	0.099
127.600	-20.286	0.099
127.700	-26.875	0.099
127.800	-29.570	0.099
127.900	-28.540	0.099
128.000	-3.083	0.099
128.100	-37.921	0.099
128.200	-28.435	0.099
128.300	-26.653	0.099
128.400	-12.715	0.099
128.500	-29.596	0.099
128.600	-29.171	0.099
128.700	-21.693	0.100
128.800	-38.712	0.099
128.900	-33.896	0.099
129.000	-28.287	0.099
129.100	-21.599	0.099
129.200	-16.435	0.099
129.300	-22.013	0.100
129.400	-35.087	0.100
129.500	-24.907	0.100
129.600	-43.098	0.099
129.700	-33.934	0.099
129.800	-29.795	0.099
129.900	-7.169	0.100
130.000	-10.190	0.100
130.100	-30.257	0.099
130.200	-32.926	0.100
130.300	-30.015	0.099
130.400	-21.311	0.099
130.500	-40.278	0.099
130.600	-20.048	0.099
130.700	-18.030	0.099
130.800	-36.439	0.099
130.900	-40.107	0.099
131.000	-31.566	0.099
131.100	-4.490	0.099
131.200	-28.329	0.099
131.300	-32.113	0.099
131.400	-27.367	0.100
131.500	-32.497	0.100
131.600	-30.751	0.100
131.700	-28.816	0.099
131.800	-29.497	0.099
131.900	-30.582	0.099
132.000	-18.974	0.099
132.100	-7.255	0.099
132.200	-23.438	0.099
132.300	-37.836	0.099
132.400	-30.739	0.099
132.500	-23.290	0.099
132.600	-16.502	0.099
132.700	-18.067	0.099
132.800	-26.599	0.099
132.900	-23.218	0.099
133.000	-51.053	0.099
133.100	-34.108	0.099
133.200	-5.113	0.099
133.300	-27.482	0.099
133.400	-36.842	0.099
133.500	-30.809	0.099
133.600	-26.555	0.099
133.700	-22.215	0.100
133.800	-31.369	0.099
133.900	-16.737	0.099
134.000	-20.003	0.099
134.100	-26.734	0.099
134.200	-17.577	0.099
134.300	-35.348	0.099
134.400	-25.794	0.099
134.500	-36.487	0.099
134.600	-20.779	0.099
134.700	-23.248	0.099
134.800	-26.419	0.099
134.900	-44.014	0.099
135.000	-21.643	0.099
135.100	-23.312	0.099
135.200	-21.495	0.099
135.300	-37.676	0.099
135.400	-36.412	0.099
135.500	-14.734	0.099
135.600	-20.932	0.099
135.700	-29.822	0.099
135.800	-31.967	0.099
135.900	-32.797	0.099
136.000	-29.189	0.099
136.100	-37.235	0.099
136.200	-18.556	0.099
136.300	-45.987	0.099
136.400	-14.350	0.099
136.500	-24.668	0.099
136.600	-18.077	0.100
136.700	-44.187	0.099
136.800	-12.566	0.099
136.900	-12.641	0.099
137.000	-43.465	0.099
137.100	-32.482	0.099
137.200	-27.457	0.099
137.300	-16.599	0.099
137.400	-29.064	0.099
137.500	-13.487	0.099
137.600	-18.301	0.099
137.700	-9.374	0.099
137.800	-29.182	0.099
137.900	-50.126	0.099
138.000	-27.705	0.099
138.100	-33.512	0.099
138.200	-20.336	0.099
138.300	-18.916	0.099
138.400	-18.974	0.099
138.500	-26.243	0.099
138.600	-37.407	0.099
138.700	-36.497	0.099
138.800	-30.657	0.099
138.900	-17.170	0.099
139.000	-18.555	0.099
139.100	-21.498	0.099
139.200	-33.343	0.099
139.300	-20.316	0.099
139.400	-31.974	0.099
139.500	-30.948	0.099
139.600	-13.666	0.099
139.700	-31.333	0.099
139.800	-23.320	0.099
139.900	-8.910	0.099
140.000	-35.774	0.099
140.100	-26.266	0.099
140.200	-34.852	0.099
140.300	-25.145	0.099
140.400	-29.061	0.100
140.500	-20.513	0.099
140.600	-31.154	0.099
140.700	-38.969	0.100
140.800	-25.086	0.099
140.900	-24.052	0.099
141.000	-14.519	0.099
141.100	-29.764	0.099
141.200	-30.645	0.099
141.300	-22.448	0.100
141.400	-15.910	0.099
141.500	-20.381	0.099
141.600	-47.758	0.099
141.700	-16.064	0.099
141.800	-7.189	0.099
141.900	-47.524	0.099
142.000	-30.569	0.099
142.100	-31.235	0.099
142.200	-24.574	0.100
142.300	-27.367	0.099
142.400	-24.304	0.099
142.500	-29.273	0.099
142.600	-17.916	0.099
142.700	-31.064	0.099
142.800	-13.423	0.099
142.900	-22.376	0.099
143.000	-9.497	0.099
143.100	-20.284	0.099
143.200	-39.304	0.099
143.300	-28.368	0.099
143.400	-24.128	0.099
143.500	-30.871	0.099
143.600	-26.869	0.100
143.700	-19.190	0.100
143.800	-25.352	0.100
143.900	-30.381	0.099
144.000	-35.554	0.099
144.100	-16.074	0.100
144.200	-12.426	0.100
144.300	-26.540	0.100
144.400	-30.959	0.099
144.500	-25.293	0.099
144.600	-37.504	0.099
144.700	-18.307	0.099
144.800	-23.136	0.099
144.900	-21.413	0.099
145.000	-35.482	0.100
145.100	-24.183	0.099
145.200	-26.637	0.099
145.300	-26.841	0.099
145.400	-23.441	0.099
145.500	-22.076	0.099
145.600	-29.384	0.099
145.700	-20.712	0.099
145.800	-29.609	0.100
145.900	-11.829	0.099
146.000	-27.368	0.099
146.100	-15.656	0.100
146.200	-40.944	0.099
146.300	-18.762	0.099
146.400	-35.156	0.099
146.500	-30.659	0.099
146.600	-24.180	0.099
146.700	-29.940	0.099
146.800	-38.491	0.099
146.900	-26.525	0.100
147.000	-13.971	0.099
147.100	-19.134	0.099
147.200	-26.678	0.099
147.300	-31.781	0.099
147.400	-38.716	0.099
147.500	-15.038	0.100
147.600	-16.590	0.099
147.700	-48.155	0.099
147.800	-26.904	0.099
147.900	-23.522	0.100
148.000	-18.697	0.099
148.100	-21.702	0.100
148.200	-0.711	0.100
148.300	-31.940	0.099
148.400	-25.529	0.099
148.500	-19.686	0.099
148.600	-37.262	0.099
148.700	-19.957	0.099
148.800	-35.493	0.100
148.900	-25.980	0.099
149.000	-40.841	0.099
149.100	-0.852	0.099
149.200	-21.860	0.099
149.300	-42.685	0.099
149.400	-6.698	0.099
149.500	-21.510	0.099
149.600	-31.052	0.099
149.700	-35.303	0.099
149.800	-26.917	0.099
149.900	-27.565	0.099
150.000	-14.480	0.099
150.100	-13.292	0.099
150.200	-19.480	0.099
150.300	-23.651	0.099
150.400	-60.715	0.099
150.500	-27.346	0.099
150.600	-20.063	0.099
150.700	-25.476	0.099
150.800	-15.949	0.099
150.900	-16.288	0.099
151.000	-31.492	0.099
151.100	-22.646	0.099
151.200	-28.327	0.099
151.300	-27.864	0.099
151.400	-16.177	0.099
151.500	-18.709	0.099
151.600	-11.106	0.100
151.700	-30.542	0.099
151.800	-25.928	0.099
151.900	-31.348	0.099
152.000	-43.673	0.099
152.100	-11.581	0.099
152.200	-10.320	0.100
152.300	-45.099	0.099
152.400	-36.081	0.099
152.500	-22.354	0.099
152.600	-26.946	0.099
152.700	-10.091	0.099
152.800	-20.422	0.099
152.900	-16.933	0.099
153.000	-18.013	0.099
153.100	-21.489	0.099
153.200	-39.234	0.099
153.300	-29.139	0.099
153.400	-20.447	0.100
153.500	-37.020	0.099
153.600	-3.794	0.100
153.700	-24.772	0.099
153.800	-29.152	0.099
153.900	-8.979	0.099
154.000	-29.840	0.099
154.100	-29.236	0.099
154.200	-42.798	0.100
154.300	-19.428	0.099
154.400	-29.800	0.100
154.500	-13.694	0.100
154.600	-21.539	0.099
154.700	-24.093	0.100
154.800	-30.303	0.099
154.900	-10.048	0.100
155.000	-36.631	0.100
155.100	-20.885	0.100
155.200	-12.440	0.100
155.300	-22.426	0.100
155.400	-22.942	0.099
155.500	-38.023	0.100
155.600	-13.642	0.100
155.700	-13.289	0.100
155.800	-35.218	0.100
155.900	-20.369	0.100
156.000	-16.465	0.100
156.100	-40.831	0.100
156.200	-27.000	0.100
156.300	-20.055	0.100
156.400	-33.589	0.099
156.500	-17.203	0.100
156.600	-5.443	0.100
156.700	-33.013	0.100
156.800	-22.421	0.100
156.900	-24.186	0.100
157.000	-13.976	0.100
157.100	-48.529	0.100
157.200	-29.199	0.100
157.300	-17.642	0.100
157.400	-29.695	0.099
157.500	-17.251	0.100
157.600	-14.783	0.100
157.700	-30.839	0.100
157.800	-27.967	0.100
157.900	-31.478	0.100
158.000	-22.421	0.100
158.100	-24.114	0.100
158.200	-18.067	0.100
158.300	-28.573	0.100
158.400	-26.390	0.100
158.500	-29.247	0.100
158.600	-34.177	0.099
158.700	-13.656	0.100
158.800	-26.815	0.100
158.900	-21.431	0.100
159.000	-44.426	0.100
159.100	-9.163	0.100
159.200	-35.424	0.099
159.300	-7.215	0.099
159.400	-1.338	0.099
159.500	-14.018	0.100
159.600	-17.278	0.099
159.700	-33.107	0.100
159.800	-30.170	0.100
159.900	-32.047	0.100
160.000	-25.254	0.100
160.100	-22.610	0.100
160.200	-34.073	0.099
160.300	-1.074	0.099
160.400	-21.980	0.099
160.500	-10.357	0.099
160.600	-31.991	0.100
160.700	-16.611	0.099
160.800	-14.842	0.099
160.900	-29.382	0.100
161.000	-24.587	0.099
161.100	-18.616	0.099
161.200	-11.261	0.099
161.300	-19.732	0.099
161.400	-11.701	0.100
161.500	-19.879	0.100
161.600	-27.764	0.099
161.700	-17.764	0.099
161.800	-22.124	0.099
161.900	-30.062	0.099
162.000	-33.299	0.099
162.100	-22.171	0.099
162.200	-20.289	0.099
162.300	-25.722	0.099
162.400	-35.615	0.099
162.500	-16.371	0.099
162.600	-23.488	0.099
162.700	-31.375	0.099
162.800	-25.498	0.099
162.900	-8.856	0.099
163.000	-15.932	0.099
163.100	-20.838	0.099
163.200	-26.960	0.099
163.300	-19.945	0.100
163.400	-28.753	0.099
163.500	-10.567	0.099
163.600	-14.344	0.099
163.700	-21.574	0.099
163.800	-22.251	0.099
163.900	-20.911	0.099
164.000	-20.394	0.099
164.100	-15.419	0.100
164.200	-21.712	0.099
164.300	7.531	0.099
164.400	-38.935	0.099
164.500	-14.360	0.099
164.600	-15.409	0.099
164.700	-11.455	0.099
164.800	-28.667	0.100
164.900	-34.098	0.099
165.000	-26.986	0.099
165.100	-21.081	0.099
165.200	-21.952	0.099
165.300	-32.352	0.100
165.400	-26.197	0.099
165.500	-16.584	0.099
165.600	-29.522	0.099
165.700	-18.468	0.099
165.800	-16.363	0.099
165.900	-9.124	0.099
166.000	-26.366	0.099
166.100	-29.670	0.099
166.200	-20.375	0.099
166.300	-28.781	0.099
166.400	-19.572	0.099
166.500	-13.778	0.099
166.600	-42.639	0.099
166.700	-23.943	0.099
166.800	8.855	0.099
166.900	-18.393	0.099
167.000	-25.903	0.099
167.100	-14.885	0.099
167.200	-47.170	0.099
167.300	-29.061	0.099
167.400	-29.782	0.099
167.500	-10.712	0.099
167.600	-15.939	0.099
167.700	-22.337	0.099
167.800	-29.968	0.099
167.900	-9.853	0.099
168.000	-30.163	0.099
168.100	-39.308	0.100
168.200	-3.727	0.099
168.300	-23.217	0.099
168.400	-20.953	0.099
168.500	-31.310	0.099
168.600	-15.311	0.099
168.700	-34.543	0.100
168.800	-14.337	0.099
168.900	-3.349	0.100
169.000	-18.003	0.100
169.100	-33.440	0.100
169.200	-13.576	0.099
169.300	-19.076	0.099
169.400	-22.825	0.099
169.500	-36.918	0.099
169.600	-35.518	0.099
169.700	-16.062	0.099
169.800	-7.846	0.099
169.900	-24.111	0.100
170.000	-26.311	0.099
170.100	-19.552	0.099
170.200	-16.659	0.100
170.300	-19.571	0.099
170.400	-14.288	0.099
170.500	-42.841	0.099
170.600	-2.084	0.100
170.700	-39.875	0.099
170.800	-21.402	0.100
170.900	-28.798	0.099
171.000	-18.086	0.099
171.100	-29.549	0.099
171.200	-6.074	0.099
171.300	-5.822	0.099
171.400	-17.682	0.099
171.500	-5.009	0.100
171.600	-23.998	0.099
171.700	-15.434	0.099
171.800	-12.041	0.099
171.900	-17.647	0.099
172.000	-19.906	0.099
172.100	-19.235	0.099
172.200	-30.182	0.099
172.300	-20.647	0.099
172.400	-14.735	0.099
172.500	-41.445	0.099
172.600	-12.009	0.099
172.700	3.919	0.099
172.800	-23.443	0.099
172.900	-27.409	0.099
173.000	-24.243	0.099
173.100	-21.524	0.099
173.200	-19.133	0.099
173.300	-22.747	0.099
173.400	-21.152	0.099
173.500	-21.984	0.099
173.600	-32.508	0.099
173.700	-24.330	0.099
173.800	-20.602	0.099
173.900	-10.374	0.099
174.000	-16.284	0.099
174.100	-19.340	0.099
174.200	-21.507	0.100
174.300	-29.199	0.099
174.400	-11.367	0.099
174.500	-15.806	0.099
174.600	-29.214	0.099
174.700	-24.889	0.099
174.800	-12.384	0.099
174.900	-35.576	0.100
175.000	-33.554	0.099
175.100	-22.255	0.099
175.200	-13.061	0.100
175.300	-23.343	0.099
175.400	-1.365	0.099
175.500	-40.295	0.099
175.600	-18.681	0.099
175.700	-20.496	0.100
175.800	-20.174	0.100
175.900	-11.944	0.099
176.000	-31.306	0.099
176.100	-17.386	0.099
176.200	-18.001	0.099
176.300	-14.300	0.099
176.400	-23.996	0.099
176.500	-29.474	0.099
176.600	-27.932	0.100
176.700	-12.266	0.100
176.800	-15.527	0.100
176.900	-24.838	0.099
177.000	-19.085	0.100
177.100	-10.820	0.099
177.200	-23.335	0.099
177.300	-21.519	0.099
177.400	-36.639	0.099
177.500	-27.000	0.100
177.600	-30.734	0.099
177.700	-15.509	0.100
177.800	-16.798	0.099
177.900	-43.521	0.099
178.000	-15.908	0.100
178.100	-17.846	0.099
178.200	-19.443	0.100
178.300	-22.904	0.100
178.400	-20.812	0.099
178.500	-14.589	0.100
178.600	-15.249	0.100
178.700	-26.393	0.099
178.800	-18.085	0.099
178.900	-26.164	0.099
179.000	-6.274	0.099
179.100	-28.938	0.100
179.200	-13.912	0.099
179.300	-16.442	0.099
179.400	-19.242	0.100
179.500	-14.586	0.100
179.600	-24.296	0.099
179.700	-19.187	0.099
179.800	-31.829	0.099
179.900	-35.654	0.099
180.000	-13.345	0.099
180.100	-10.380	0.100
180.200	-3.282	0.100
180.300	17.378	0.100
180.400	15.537	0.099
180.500	7.113	0.100
180.600	17.363	0.099
180.700	32.007	0.100
180.800	23.506	0.100
180.900	8.314	0.099
181.000	24.139	0.100
181.100	17.454	0.100
181.200	25.720	0.099
181.300	27.344	0.100
181.400	43.483	0.099
181.500	2.914	0.099
181.600	40.147	0.099
181.700	19.532	0.099
181.800	26.188	0.099
181.900	27.082	0.099
182.000	6.392	0.099
182.100	28.499	0.099
182.200	30.399	0.099
182.300	20.488	0.099
182.400	24.203	0.099
182.500	27.174	0.099
182.600	25.963	0.099
182.700	33.056	0.099
182.800	19.080	0.099
182.900	28.104	0.099
183.000	27.413	0.099
183.100	17.601	0.099
183.200	20.071	0.099
183.300	27.734	0.099
183.400	3.092	0.099
183.500	14.578	0.099
183.600	30.220	0.099
183.700	29.274	0.099
183.800	8.351	0.099
183.900	22.312	0.099
184.000	15.972	0.099
184.100	3.421	0.099
184.200	18.830	0.099
184.300	17.323	0.099
184.400	17.640	0.099
184.500	-1.939	0.099
184.600	6.950	0.099
184.700	14.592	0.099
184.800	18.454	0.099
184.900	13.881	0.099
185.000	21.998	0.100
185.100	17.577	0.099
185.200	23.434	0.099
185.300	7.937	0.099
185.400	12.958	0.099
185.500	25.172	0.099
185.600	6.092	0.099
185.700	10.511	0.099
185.800	22.693	0.100
185.900	13.188	0.099
186.000	7.768	0.099
186.100	18.683	0.099
186.200	30.312	0.099
186.300	20.113	0.100
186.400	16.441	0.099
186.500	34.586	0.100
186.600	5.559	0.099
186.700	22.841	0.100
186.800	23.103	0.099
186.900	9.430	0.100
187.000	41.440	0.099
187.100	29.499	0.099
187.200	21.855	0.099
187.300	15.395	0.099
187.400	22.212	0.099
187.500	30.355	0.099
187.600	6.898	0.099
187.700	26.642	0.099
187.800	22.091	0.099
187.900	32.567	0.099
188.000	37.333	0.099
188.100	28.025	0.099
188.200	20.525	0.099
188.300	44.626	0.099
188.400	14.441	0.099
188.500	6.932	0.099
188.600	55.352	0.100
188.700	31.947	0.099
188.800	21.356	0.099
188.900	19.360	0.099
189.000	24.094	0.099
189.100	28.906	0.099
189.200	47.623	0.100
189.300	13.127	0.099
189.400	15.266	0.099
189.500	33.551	0.099
189.600	32.235	0.099
189.700	35.928	0.099
189.800	33.455	0.099
189.900	37.805	0.099
190.000	28.490	0.099
190.100	33.476	0.099
190.200	33.273	0.099
190.300	41.559	0.099
190.400	31.843	0.099
190.500	36.681	0.099
190.600	35.708	0.099
190.700	38.406	0.099
190.800	30.445	0.099
190.900	38.578	0.099
191.000	29.621	0.099
191.100	19.433	0.099
191.200	36.011	0.099
191.300	32.802	0.099
191.400	40.076	0.100
191.500	36.603	0.099
191.600	39.762	0.099
191.700	34.263	0.099
191.800	54.312	0.099
191.900	45.841	0.099
192.000	47.722	0.100
192.100	44.210	0.099
192.200	33.874	0.099
192.300	28.790	0.100
192.400	16.824	0.099
192.500	38.745	0.099
192.600	31.625	0.099
192.700	59.002	0.099
192.800	47.904	0.099
192.900	39.801	0.099
193.000	39.917	0.099
193.100	34.231	0.099
193.200	47.429	0.099
193.300	26.836	0.099
193.400	46.274	0.099
193.500	38.498	0.099
193.600	46.070	0.099
193.700	52.922	0.099
193.800	47.797	0.099
193.900	47.987	0.099
194.000	45.017	0.099
194.100	34.223	0.099
194.200	39.375	0.099
194.300	34.369	0.099
194.400	47.033	0.099
194.500	51.625	0.099
194.600	41.859	0.099
194.700	44.568	0.099
194.800	51.972	0.099
194.900	39.208	0.099
195.000	45.896	0.099
195.100	31.078	0.099
195.200	60.368	0.099
195.300	53.857	0.099
195.400	31.874	0.099
195.500	49.529	0.099
195.600	45.587	0.099
195.700	50.590	0.099
195.800	38.264	0.099
195.900	52.940	0.099
196.000	46.049	0.099
196.100	47.155	0.099
196.200	53.774	0.099
196.300	49.563	0.099
196.400	43.021	0.099
196.500	53.861	0.099
196.600	41.992	0.099
196.700	55.267	0.099
196.800	40.823	0.099
196.900	43.569	0.099
197.000	69.731	0.099
197.100	52.664	0.099
197.200	54.957	0.099
197.300	43.662	0.099
197.400	52.104	0.099
197.500	35.859	0.099
197.600	60.716	0.099
197.700	56.560	0.099
197.800	49.719	0.099
197.900	51.828	0.099
198.000	42.859	0.099
198.100	60.909	0.099
198.200	41.972	0.099
198.300	46.073	0.099
198.400	52.484	0.099
198.500	49.561	0.099
198.600	48.371	0.099
198.700	53.522	0.099
198.800	65.533	0.099
198.900	40.428	0.099
199.000	47.566	0.099
199.100	57.072	0.099
199.200	47.410	0.099
199.300	48.700	0.099
199.400	42.561	0.099
199.500	27.786	0.099
199.600	69.118	0.099
199.700	58.507	0.100
199.800	47.866	0.099
199.900	61.626	0.099
200.000	46.732	0.099
200.100	54.158	0.099
200.200	46.193	0.099
200.300	58.686	0.099
200.400	60.647	0.099
200.500	59.304	0.099
200.600	62.791	0.099
200.700	38.070	0.099
200.800	72.539	0.099
200.900	54.638	0.099
201.000	49.044	0.099
201.100	39.468	0.099
201.200	56.094	0.099
201.300	48.039	0.099
201.400	60.300	0.099
201.500	51.526	0.099
201.600	51.700	0.099
201.700	55.250	0.099
201.800	55.360	0.099
201.900	56.318	0.099
202.000	52.234	0.099
202.100	43.784	0.099
202.200	50.886	0.100
202.300	42.681	0.099
202.400	61.219	0.099
202.500	59.986	0.099
202.600	55.753	0.099
202.700	58.056	0.099
202.800	44.507	0.099
202.900	55.978	0.099
203.000	21.957	0.099
203.100	70.013	0.099
203.200	65.133	0.099
203.300	56.189	0.099
203.400	56.167	0.100
203.500	43.378	0.099
203.600	43.903	0.099
203.700	52.011	0.099
203.800	59.567	0.099
203.900	70.202	0.099
204.000	73.255	0.099
204.100	28.106	0.099
204.200	51.185	0.099
204.300	61.812	0.099
204.400	41.397	0.099
204.500	56.119	0.099
204.600	81.293	0.099
204.700	58.177	0.099
204.800	58.490	0.099
204.900	52.570	0.099
205.000	58.859	0.099
205.100	63.325	0.099
205.200	59.548	0.099
205.300	58.134	0.099
205.400	54.062	0.099
205.500	63.417	0.099
205.600	55.147	0.099
205.700	62.915	0.099
205.800	52.361	0.099
205.900	56.390	0.099
206.000	53.572	0.099
206.100	73.950	0.099
206.200	41.000	0.099
206.300	59.371	0.099
206.400	59.641	0.099
206.500	74.961	0.099
206.600	58.665	0.099
206.700	60.523	0.099
206.800	47.949	0.099
206.900	55.898	0.099
207.000	72.568	0.099
207.100	62.832	0.099
207.200	62.117	0.099
207.300	59.052	0.100
207.400	49.795	0.099
207.500	50.412	0.099
207.600	55.856	0.099
207.700	61.494	0.099
207.800	59.491	0.099
207.900	50.900	0.099
208.000	49.051	0.099
208.100	46.049	0.099
208.200	68.698	0.099
208.300	68.889	0.099
208.400	53.711	0.099
208.500	59.150	0.099
208.600	73.548	0.099
208.700	78.636	0.099
208.800	63.807	0.099
208.900	69.961	0.099
209.000	56.772	0.099
209.100	66.554	0.099
209.200	64.991	0.099
209.300	55.990	0.099
209.400	74.584	0.099
209.500	63.570	0.099
209.600	56.367	0.099
209.700	61.484	0.099
209.800	46.775	0.099
209.900	75.823	0.099
210.000	70.606	0.099
210.100	66.300	0.100
210.200	54.609	0.099
210.300	70.580	0.099
210.400	71.118	0.099
210.500	64.359	0.099
210.600	68.758	0.099
210.700	69.817	0.099
210.800	60.750	0.099
210.900	59.025	0.099
211.000	57.743	0.099
211.100	51.800	0.099
211.200	72.842	0.099
211.300	67.583	0.099
211.400	65.690	0.100
211.500	56.468	0.099
211.600	58.212	0.099
211.700	70.582	0.099
211.800	40.438	0.099
211.900	70.305	0.099
212.000	66.113	0.099
212.100	56.330	0.099
212.200	47.367	0.100
212.300	69.622	0.099
212.400	66.887	0.099
212.500	64.816	0.099
212.600	78.126	0.099
212.700	74.728	0.099
212.800	59.095	0.099
212.900	60.530	0.099
213.000	62.051	0.099
213.100	65.435	0.099
213.200	64.708	0.099
213.300	58.719	0.100
213.400	65.607	0.099
213.500	70.025	0.099
213.600	73.766	0.099
213.700	70.166	0.099
213.800	60.038	0.099
213.900	73.092	0.099
214.000	65.508	0.099
214.100	65.271	0.100
214.200	52.956	0.099
214.300	71.037	0.099
214.400	80.760	0.099
214.500	69.058	0.099
214.600	74.517	0.099
214.700	46.189	0.099
214.800	80.044	0.099
214.900	66.999	0.099
215.000	71.220	0.100
215.100	61.540	0.099
215.200	67.513	0.100
215.300	53.112	0.099
215.400	67.843	0.099
215.500	53.206	0.099
215.600	76.794	0.099
215.700	73.113	0.099
215.800	81.006	0.099
215.900	68.611	0.099
216.000	49.375	0.099
216.100	68.374	0.099
216.200	73.399	0.099
216.300	68.614	0.099
216.400	75.145	0.099
216.500	66.616	0.099
216.600	67.258	0.099
216.700	69.156	0.099
216.800	68.164	0.099
216.900	77.256	0.099
217.000	72.142	0.099
217.100	75.984	0.099
217.200	48.169	0.099
217.300	72.298	0.100
217.400	65.355	0.099
217.500	66.555	0.100
217.600	79.367	0.099
217.700	69.354	0.100
217.800	71.676	0.099
217.900	75.115	0.100
218.000	69.731	0.100
218.100	49.620	0.100
218.200	79.085	0.100
218.300	86.025	0.100
218.400	72.302	0.099
218.500	72.430	0.100
218.600	81.017	0.099
218.700	50.743	0.099
218.800	71.293	0.099
218.900	74.975	0.100
219.000	59.612	0.099
219.100	79.550	0.099
219.200	76.041	0.099
219.300	70.372	0.099
219.400	76.730	0.099
219.500	58.999	0.099
219.600	80.103	0.099
219.700	64.822	0.099
219.800	79.349	0.099
219.900	78.462	0.099
220.000	73.427	0.099
220.100	72.921	0.099
220.200	59.921	0.099
220.300	61.206	0.099
220.400	79.514	0.099
220.500	61.017	0.099
220.600	65.652	0.099
220.700	77.759	0.099
220.800	63.835	0.099
220.900	89.115	0.099
221.000	83.947	0.100
221.100	55.355	0.100
221.200	76.125	0.100
221.300	83.768	0.099
221.400	55.690	0.099
221.500	74.376	0.099
221.600	64.348	0.099
221.700	73.343	0.099
221.800	89.823	0.099
221.900	70.765	0.099
222.000	54.811	0.099
222.100	64.025	0.100
222.200	93.340	0.099
222.300	79.767	0.099
222.400	78.782	0.099
222.500	74.912	0.100
222.600	58.426	0.099
222.700	85.235	0.099
222.800	77.596	0.099
222.900	62.036	0.099
223.000	69.127	0.099
223.100	68.929	0.099
223.200	66.213	0.099
223.300	84.747	0.099
223.400	76.465	0.099
223.500	78.437	0.099
223.600	75.737	0.099
223.700	72.976	0.099
223.800	78.426	0.099
223.900	66.203	0.099
224.000	70.137	0.099
224.100	73.464	0.099
224.200	74.542	0.099
224.300	77.280	0.099
224.400	59.080	0.099
224.500	79.195	0.099
224.600	73.633	0.099
224.700	78.202	0.099
224.800	68.607	0.099
224.900	59.028	0.099
225.000	69.607	0.099
225.100	81.066	0.099
225.200	82.183	0.100
225.300	77.459	0.099
225.400	55.200	0.099
225.500	73.283	0.099
225.600	80.087	0.099
225.700	80.146	0.100
225.800	86.429	0.099
225.900	68.308	0.099
226.000	55.129	0.100
226.100	90.778	0.099
226.200	90.388	0.099
226.300	69.598	0.099
226.400	71.369	0.099
226.500	78.303	0.099
226.600	55.149	0.099
226.700	96.940	0.099
226.800	81.119	0.099
226.900	79.713	0.099
227.000	82.698	0.099
227.100	73.761	0.099
227.200	66.996	0.099
227.300	58.720	0.099
227.400	64.776	0.099
227.500	74.478	0.099
227.600	85.122	0.099
227.700	76.264	0.099
227.800	70.618	0.099
227.900	72.277	0.099
228.000	71.180	0.099
228.100	64.233	0.099
228.200	81.491	0.099
228.300	75.865	0.099
228.400	72.422	0.099
228.500	72.261	0.100
228.600	61.421	0.099
228.700	87.186	0.099
228.800	68.818	0.099
228.900	82.180	0.099
229.000	62.944	0.099
229.100	83.275	0.099
229.200	72.753	0.099
229.300	84.370	0.099
229.400	85.021	0.099
229.500	71.356	0.099
229.600	65.974	0.099
229.700	72.915	0.099
229.800	86.532	0.099
229.900	76.594	0.099
230.000	72.142	0.099
230.100	69.264	0.099
230.200	40.554	0.099
230.300	63.142	0.099
230.400	78.252	0.099
230.500	63.422	0.099
230.600	58.754	0.099
230.700	65.774	0.099
230.800	79.588	0.099
230.900	84.777	0.100
231.000	66.017	0.099
231.100	80.865	0.099
231.200	68.260	0.099
231.300	65.676	0.099
231.400	65.719	0.099
231.500	78.805	0.099
231.600	82.673	0.099
231.700	75.329	0.100
231.800	64.430	0.099
231.900	89.508	0.099
232.000	76.905	0.099
232.100	67.741	0.099
232.200	65.295	0.100
232.300	50.417	0.099
232.400	80.408	0.099
232.500	73.389	0.099
232.600	86.666	0.099
232.700	81.175	0.099
232.800	70.777	0.099
232.900	71.229	0.099
233.000	80.768	0.100
233.100	82.612	0.099
233.200	70.252	0.099
233.300	73.631	0.099
233.400	71.685	0.099
233.500	80.145	0.099
233.600	75.311	0.099
233.700	71.104	0.099
233.800	81.618	0.099
233.900	88.152	0.099
234.000	69.020	0.099
234.100	90.506	0.100
234.200	73.587	0.099
234.300	75.022	0.100
234.400	75.140	0.099
234.500	66.610	0.099
234.600	64.043	0.100
234.700	80.682	0.099
234.800	74.299	0.099
234.900	72.121	0.100
235.000	78.630	0.099
235.100	72.563	0.100
235.200	55.018	0.099
235.300	71.530	0.100
235.400	73.696	0.099
235.500	90.133	0.099
235.600	74.564	0.099
235.700	71.384	0.099
235.800	67.498	0.099
235.900	71.508	0.099
236.000	71.453	0.099
236.100	61.931	0.099
236.200	80.571	0.099
236.300	62.341	0.099
236.400	81.357	0.099
236.500	71.598	0.099
236.600	75.324	0.099
236.700	85.447	0.099
236.800	58.374	0.100
236.900	77.164	0.100
237.000	58.908	0.100
237.100	96.940	0.100
237.200	77.132	0.099
237.300	73.650	0.099
237.400	75.515	0.099
237.500	75.243	0.100
237.600	52.614	0.099
237.700	75.975	0.099
237.800	80.620	0.099
237.900	75.209	0.100
238.000	72.716	0.100
238.100	60.945	0.099
238.200	85.789	0.099
238.300	69.859	0.099
238.400	77.870	0.099
238.500	87.402	0.100
238.600	77.182	0.099
238.700	61.080	0.099
238.800	84.629	0.099
238.900	70.618	0.100
239.000	75.545	0.099
239.100	66.281	0.100
239.200	68.323	0.100
239.300	78.079	0.100
239.400	79.370	0.100
239.500	72.336	0.099
239.600	57.840	0.099
239.700	83.890	0.099
239.800	68.884	0.099
239.900	69.943	0.099
240.000	53.338	0.099
240.100	75.303	0.100
240.200	60.180	0.100
240.300	53.896	0.100
240.400	57.006	0.100
240.500	52.514	0.099
240.600	20.016	0.099
240.700	40.551	0.100
240.800	9.442	0.099
240.900	20.083	0.099
241.000	-14.237	0.100
241.100	-2.829	0.100
241.200	-3.151	0.099
241.300	-15.211	0.099
241.400	-6.691	0.100
241.500	-32.821	0.100
241.600	-9.650	0.099
241.700	-20.117	0.099
241.800	-37.800	0.099
241.900	-31.874	0.099
242.000	-40.812	0.099
242.100	-53.199	0.099
242.200	-30.025	0.099
242.300	-35.866	0.099
242.400	-48.262	0.099
242.500	-46.005	0.099
242.600	-28.834	0.099
242.700	-53.052	0.099
242.800	-49.061	0.099
242.900	-52.223	0.099
243.000	-47.081	0.099
243.100	-33.107	0.099
243.200	-44.012	0.099
243.300	-58.171	0.099
243.400	-54.638	0.099
243.500	-19.113	0.099
243.600	-44.813	0.099
243.700	-54.430	0.099
243.800	-39.494	0.099
243.900	-45.623	0.099
244.000	-47.261	0.099
244.100	-38.432	0.100
244.200	-43.847	0.099
244.300	-39.411	0.099
244.400	-43.068	0.099
244.500	-57.166	0.099
244.600	-27.840	0.099
244.700	-37.427	0.100
244.800	-42.532	0.100
244.900	-42.212	0.099
245.000	-39.293	0.100
245.100	-44.906	0.100
245.200	-33.193	0.099
245.300	-36.925	0.100
245.400	-38.576	0.099
245.500	-50.783	0.100
245.600	-41.791	0.100
245.700	-35.811	0.100
245.800	-39.844	0.100
245.900	-36.386	0.100
246.000	-41.818	0.099
246.100	-32.403	0.099
246.200	-33.036	0.099
246.300	-27.618	0.099
246.400	-19.517	0.100
246.500	-35.549	0.100
246.600	-40.992	0.100
246.700	-37.054	0.100
246.800	-27.647	0.100
246.900	-33.097	0.099
247.000	-22.428	0.099
247.100	-31.291	0.099
247.200	-44.466	0.099
247.300	-23.844	0.099
247.400	-34.477	0.099
247.500	-27.804	0.099
247.600	-34.638	0.099
247.700	-31.056	0.099
247.800	-47.509	0.100
247.900	-34.678	0.099
248.000	-30.876	0.100
248.100	-23.478	0.100
248.200	-30.623	0.100
248.300	-41.723	0.099
248.400	-36.608	0.099
248.500	-33.307	0.100
248.600	-39.142	0.099
248.700	-22.478	0.100
248.800	-32.527	0.099
248.900	-38.796	0.099
249.000	-36.784	0.099
249.100	-31.544	0.099
249.200	-29.908	0.100
249.300	-18.085	0.100
249.400	-41.075	0.099
249.500	-29.547	0.099
249.600	-46.481	0.099
249.700	-32.426	0.099
249.800	-25.125	0.100
249.900	-25.505	0.099
250.000	-43.236	0.100
250.100	-14.418	0.099
250.200	-37.619	0.100
250.300	-33.810	0.099
250.400	-22.454	0.099
250.500	-45.278	0.100
250.600	-24.990	0.100
250.700	-41.811	0.100
250.800	-26.743	0.099
250.900	-33.962	0.100
251.000	-39.267	0.099
251.100	-28.156	0.099
251.200	-33.143	0.099
251.300	-24.540	0.100
251.400	-40.332	0.100
251.500	-27.392	0.099
251.600	-31.211	0.100
251.700	-36.853	0.100
251.800	-42.265	0.100
251.900	-44.981	0.099
252.000	-40.190	0.099
252.100	-26.234	0.099
252.200	-50.550	0.099
252.300	-5.591	0.100
252.400	-39.279	0.100
252.500	-29.408	0.099
252.600	-45.166	0.100
252.700	-32.833	0.099
252.800	-43.874	0.099
252.900	-29.178	0.099
253.000	-34.741	0.099
253.100	-36.117	0.099
253.200	-36.605	0.099
253.300	-34.853	0.099
253.400	-31.665	0.099
253.500	-22.203	0.099
253.600	-31.382	0.099
253.700	-39.960	0.099
253.800	-26.912	0.099
253.900	-21.351	0.099
254.000	-34.949	0.099
254.100	-46.407	0.099
254.200	-35.637	0.100
254.300	-24.685	0.099
254.400	-37.363	0.099
254.500	-34.167	0.099
254.600	-29.761	0.099
254.700	-22.490	0.099
254.800	-35.034	0.099
254.900	-19.498	0.099
255.000	-30.641	0.099
255.100	-31.185	0.099
255.200	-38.547	0.099
255.300	-27.074	0.099
255.400	-31.434	0.100
255.500	-51.959	0.099
255.600	-33.701	0.099
255.700	-40.168	0.100
255.800	-43.346	0.100
255.900	-25.576	0.100
256.000	-28.796	0.100
256.100	-38.177	0.099
256.200	-23.399	0.099
256.300	-40.501	0.099
256.400	-24.760	0.099
256.500	-34.095	0.100
256.600	-39.374	0.099
256.700	-27.744	0.099
256.800	-21.808	0.100
256.900	-39.910	0.099
257.000	-37.016	0.100
257.100	-28.970	0.100
257.200	-23.641	0.100
257.300	-27.216	0.100
257.400	-34.318	0.100
257.500	-29.527	0.100
257.600	-23.720	0.099
257.700	-49.022	0.099
257.800	-29.540	0.100
257.900	-41.071	0.099
258.000	-29.662	0.100
258.100	-40.849	0.100
258.200	-49.322	0.100
258.300	-32.582	0.100
258.400	-39.216	0.099
258.500	-34.464	0.100
258.600	-18.929	0.099
258.700	-43.747	0.099
258.800	-41.735	0.099
258.900	-24.389	0.099
259.000	-31.900	0.099
259.100	-30.165	0.100
259.200	-23.858	0.099
259.300	-30.345	0.099
259.400	-18.894	0.099
259.500	-47.042	0.099
259.600	-41.064	0.100
259.700	-52.000	0.099
259.800	-34.227	0.099
259.900	-5.906	0.099
260.000	-35.087	0.099
260.100	-40.534	0.099
260.200	-42.895	0.099
260.300	-20.367	0.099
260.400	-22.886	0.100
260.500	-33.184	0.100
260.600	-28.550	0.100
260.700	-17.291	0.100
260.800	-30.730	0.100
260.900	-24.152	0.099
261.000	-41.601	0.100
261.100	-44.655	0.099
261.200	-44.251	0.099
261.300	-25.352	0.099
261.400	-37.002	0.100
261.500	-34.810	0.099
261.600	-27.957	0.100
261.700	-30.611	0.099
261.800	-36.702	0.100
261.900	-27.887	0.100
262.000	-50.384	0.100
262.100	-38.329	0.099
262.200	-19.563	0.099
262.300	-36.784	0.099
262.400	-36.886	0.099
262.500	-24.129	0.099
262.600	-33.857	0.099
262.700	-35.319	0.100
262.800	-17.973	0.100
262.900	-49.397	0.099
263.000	-34.266	0.099
263.100	-20.816	0.099
263.200	-36.756	0.099
263.300	-26.051	0.099
263.400	-27.981	0.099
263.500	-37.306	0.099
263.600	-22.579	0.099
263.700	-41.853	0.099
263.800	-41.862	0.100
263.900	-40.265	0.100
264.000	-48.607	0.100
264.100	-37.893	0.099
264.200	-31.367	0.100
264.300	-17.355	0.100
264.400	-29.676	0.099
264.500	-31.335	0.099
264.600	-29.434	0.100
264.700	-33.434	0.099
264.800	-17.279	0.100
264.900	-33.928	0.099
265.000	-27.625	0.100
265.100	-31.159	0.100
265.200	-52.089	0.100
265.300	-23.350	0.100
265.400	-27.488	0.099
265.500	-34.529	0.100
265.600	-29.782	0.099
265.700	-38.451	0.099
265.800	-35.487	0.099
265.900	-35.805	0.099
266.000	-38.648	0.100
266.100	-40.730	0.100
266.200	-23.245	0.099
266.300	-22.896	0.100
266.400	-47.778	0.099
266.500	-24.573	0.100
266.600	-13.871	0.099
266.700	-46.881	0.100
266.800	-20.623	0.099
266.900	-45.808	0.099
267.000	-22.751	0.100
267.100	-9.288	0.100
267.200	-33.825	0.100
267.300	-40.075	0.100
267.400	-30.098	0.100
267.500	-46.469	0.099
267.600	-35.502	0.100
267.700	-30.116	0.099
267.800	-27.207	0.099
267.900	-23.571	0.100
268.000	-21.126	0.099
268.100	-30.377	0.100
268.200	-15.437	0.100
268.300	-34.968	0.100
268.400	-23.231	0.100
268.500	-30.479	0.100
268.600	-30.257	0.100
268.700	-36.213	0.100
268.800	-31.241	0.100
268.900	-48.252	0.100
269.000	-29.834	0.100
269.100	-30.999	0.099
269.200	-26.971	0.099
269.300	-36.256	0.099
269.400	-34.586	0.100
269.500	-28.036	0.100
269.600	-34.154	0.100
269.700	-24.714	0.100
269.800	-50.641	0.100
269.900	-29.253	0.100
270.000	-20.580	0.100
270.100	-15.280	0.100
270.200	-24.816	0.100
270.300	-21.074	0.099
270.400	-23.683	0.100
270.500	-33.928	0.100
270.600	-23.293	0.100
270.700	-52.830	0.099
270.800	-36.895	0.100
270.900	-24.604	0.100
271.000	-31.215	0.100
271.100	-19.288	0.100
271.200	-22.040	0.099
271.300	-25.748	0.100
271.400	-36.384	0.100
271.500	-35.807	0.100
271.600	-60.547	0.099
271.700	-31.757	0.099
271.800	-29.862	0.100
271.900	-39.205	0.099
272.000	-17.226	0.100
272.100	-42.135	0.100
272.200	-31.431	0.100
272.300	-30.243	0.100
272.400	-37.013	0.100
272.500	-36.292	0.099
272.600	-36.527	0.100
272.700	-31.913	0.100
272.800	-32.245	0.099
272.900	-30.536	0.100
273.000	-5.655	0.100
273.100	-33.473	0.100
273.200	-33.226	0.100
273.300	-32.168	0.100
273.400	-42.979	0.100
273.500	-32.602	0.099
273.600	-39.741	0.100
273.700	-21.297	0.100
273.800	-25.437	0.099
273.900	-40.135	0.100
274.000	-38.051	0.099
274.100	-22.243	0.100
274.200	-36.713	0.099
274.300	-28.073	0.100
274.400	-17.684	0.100
274.500	-23.417	0.100
274.600	-21.043	0.100
274.700	-28.312	0.100
274.800	-34.756	0.100
274.900	-28.169	0.100
275.000	-15.935	0.099
275.100	-17.056	0.099
275.200	-35.814	0.100
275.300	-26.307	0.100
275.400	-10.727	0.100
275.500	-19.677	0.100
275.600	-39.383	0.100
275.700	-30.793	0.100
275.800	-29.439	0.100
275.900	-23.157	0.100
276.000	-37.832	0.100
276.100	-29.578	0.100
276.200	-40.829	0.100
276.300	-21.066	0.100
276.400	-19.052	0.100
276.500	-31.085	0.100
276.600	-28.015	0.100
276.700	-27.228	0.100
276.800	-15.749	0.100
276.900	-12.784	0.100
277.000	-39.050	0.100
277.100	-45.033	0.100
277.200	-31.211	0.100
277.300	-32.981	0.100
277.400	-42.929	0.100
277.500	-20.218	0.100
277.600	-26.084	0.100
277.700	-37.375	0.099
277.800	-33.679	0.100
277.900	-27.747	0.100
278.000	-40.978	0.100
278.100	-33.511	0.100
278.200	-30.909	0.100
278.300	-31.657	0.100
278.400	-28.017	0.099
278.500	-28.822	0.099
278.600	-16.892	0.100
278.700	-33.664	0.100
278.800	-45.231	0.099
278.900	-33.455	0.099
279.000	-33.022	0.100
279.100	-21.608	0.100
279.200	-36.688	0.100
279.300	-24.256	0.100
279.400	-20.866	0.100
279.500	-32.676	0.100
279.600	-23.318	0.100
279.700	-30.203	0.100
279.800	-46.666	0.100
279.900	-36.225	0.100
280.000	-17.969	0.100
280.100	-22.299	0.099
280.200	-44.509	0.100
280.300	-40.959	0.100
280.400	-36.466	0.099
280.500	-17.696	0.100
280.600	-31.066	0.100
280.700	-28.530	0.099
280.800	-34.897	0.100
280.900	-14.990	0.100
281.000	-31.613	0.100
281.100	-20.325	0.100
281.200	-44.037	0.099
281.300	-34.595	0.100
281.400	-20.344	0.100
281.500	-21.689	0.099
281.600	-19.565	0.100
281.700	-41.541	0.099
281.800	-46.650	0.099
281.900	-19.954	0.100
282.000	-18.977	0.100
282.100	-30.991	0.100
282.200	-26.066	0.099
282.300	-15.433	0.099
282.400	-34.864	0.100
282.500	-22.346	0.099
282.600	-18.996	0.099
282.700	-35.492	0.099
282.800	-24.787	0.100
282.900	-7.783	0.099
283.000	-50.163	0.099
283.100	-23.834	0.099
283.200	-31.725	0.099
283.300	-25.287	0.099
283.400	-25.385	0.100
283.500	-15.099	0.100
283.600	-37.487	0.100
283.700	-31.526	0.099
283.800	-24.327	0.099
283.900	-34.093	0.099
284.000	-36.569	0.100
284.100	-27.977	0.100
284.200	-27.349	0.099
284.300	-30.135	0.100
284.400	-37.119	0.100
284.500	-33.866	0.100
284.600	-24.552	0.100
284.700	-22.949	0.100
284.800	-20.378	0.100
284.900	-18.134	0.099
285.000	-26.084	0.099
285.100	-29.935	0.099
285.200	-28.835	0.099
285.300	-30.484	0.099
285.400	-34.193	0.100
285.500	-43.376	0.100
285.600	-27.059	0.099
285.700	-41.531	0.099
285.800	-30.404	0.100
285.900	-40.765	0.100
286.000	-40.586	0.099
286.100	-29.156	0.100
286.200	-33.712	0.100
286.300	-31.938	0.100
286.400	-27.661	0.099
286.500	-40.651	0.099
286.600	-62.729	0.099
286.700	-10.351	0.099
286.800	-21.815	0.099
286.900	-25.856	0.100
287.000	-23.351	0.100
287.100	-41.275	0.099
287.200	-41.942	0.100
287.300	-47.537	0.099
287.400	-26.491	0.099
287.500	-17.095	0.099
287.600	-28.718	0.100
287.700	-18.287	0.099
287.800	-26.328	0.100
287.900	-53.506	0.099
288.000	-26.065	0.099
288.100	-14.511	0.100
288.200	-28.819	0.099
288.300	-35.563	0.099
288.400	-32.683	0.099
288.500	-22.302	0.100
288.600	-32.364	0.099
288.700	-42.215	0.099
288.800	-41.278	0.100
288.900	-36.931	0.099
289.000	-23.126	0.100
289.100	-34.429	0.099
289.200	-28.841	0.099
289.300	-33.657	0.100
289.400	-54.690	0.099
289.500	-19.427	0.099
289.600	-18.576	0.099
289.700	-31.164	0.099
289.800	-26.927	0.099
289.900	-15.766	0.099
290.000	-27.899	0.099
290.100	-37.989	0.099
290.200	-28.485	0.099
290.300	-32.258	0.100
290.400	-22.045	0.099
290.500	-28.637	0.100
290.600	-33.820	0.099
290.700	-38.480	0.100
290.800	-28.611	0.099
290.900	-39.422	0.099
291.000	-36.246	0.099
291.100	-19.852	0.099
291.200	-31.387	0.099
291.300	-21.938	0.099
291.400	-35.524	0.099
291.500	-31.613	0.099
291.600	-20.973	0.099
291.700	-40.734	0.099
291.800	-19.939	0.099
291.900	-42.129	0.099
292.000	-12.231	0.100
292.100	-29.248	0.099
292.200	-24.696	0.099
292.300	-27.440	0.099
292.400	-25.342	0.099
292.500	-18.986	0.099
292.600	-27.463	0.099
292.700	-28.909	0.099
292.800	-26.627	0.099
292.900	-28.012	0.099
293.000	-30.115	0.099
293.100	-29.029	0.099
293.200	-18.798	0.100
293.300	-15.646	0.099
293.400	-25.764	0.100
293.500	-36.275	0.100
293.600	-30.158	0.099
293.700	-25.420	0.100
293.800	-43.642	0.100
293.900	-12.248	0.099
294.000	-33.347	0.099
294.100	-19.934	0.100
294.200	-23.109	0.099
294.300	-33.953	0.099
294.400	-30.226	0.099
294.500	-35.080	0.099
294.600	-38.630	0.099
294.700	-31.709	0.099
294.800	-30.749	0.099
294.900	-30.922	0.099
295.000	-21.243	0.099
295.100	-31.305	0.099
295.200	-30.264	0.099
295.300	-16.782	0.099
295.400	-32.881	0.100
295.500	-39.176	0.099
295.600	-37.983	0.099
295.700	-21.638	0.099
295.800	-30.985	0.100
295.900	-26.016	0.100
296.000	-11.151	0.099
296.100	-18.201	0.099
296.200	-32.825	0.099
296.300	-31.096	0.100
296.400	-25.587	0.099
296.500	-37.248	0.099
296.600	-19.180	0.099
296.700	-25.429	0.099
296.800	-10.819	0.100
296.900	-40.122	0.099
297.000	-26.687	0.100
297.100	-28.057	0.099
297.200	-18.363	0.100
297.300	-27.889	0.099
297.400	-20.762	0.099
297.500	-33.938	0.099
297.600	-32.704	0.099
297.700	-25.538	0.099
297.800	-34.072	0.099
297.900	-25.518	0.099
298.000	-30.107	0.099
298.100	-32.379	0.099
298.200	-28.438	0.099
298.300	-12.777	0.100
298.400	-28.127	0.100
298.500	-41.120	0.099
298.600	-27.914	0.099
298.700	-10.412	0.099
298.800	-14.620	0.099
298.900	-25.294	0.099
299.000	-36.655	0.100
299.100	-49.691	0.099
299.200	-11.926	0.099
299.300	-24.702	0.099
299.400	-40.446	0.100
299.500	-20.797	0.099
299.600	-24.031	0.099
299.700	-28.439	0.099
299.800	-24.054	0.100
299.900	-44.728	0.099
300.000	-29.072	0.099
300.100	15.071	0.099
300.200	-27.828	0.100
300.300	-45.820	0.099
300.400	-6.139	0.099
300.500	-23.609	0.099
300.600	-33.723	0.099
300.700	-41.014	0.099
300.800	-17.659	0.100
300.900	-28.924	0.100
301.000	-32.545	0.100
301.100	-42.391	0.100
301.200	-16.241	0.100
301.300	-38.940	0.099
301.400	-14.583	0.100
301.500	-42.195	0.099
301.600	-17.613	0.099
301.700	-32.242	0.099
301.800	-29.310	0.099
301.900	-17.065	0.099
302.000	-40.436	0.099
302.100	-35.090	0.099
302.200	-29.078	0.099
302.300	-18.848	0.100
302.400	-32.043	0.099
302.500	-15.189	0.100
302.600	-7.947	0.100
302.700	-30.139	0.100
302.800	-16.267	0.100
302.900	-33.422	0.100
303.000	-22.615	0.100
303.100	-46.365	0.099
303.200	-34.616	0.100
303.300	-5.758	0.100
303.400	-25.200	0.099
303.500	-33.165	0.099
303.600	-23.807	0.099
303.700	-29.768	0.099
303.800	-18.264	0.100
303.900	-30.488	0.099
304.000	-18.172	0.100
304.100	-27.472	0.100
304.200	-26.412	0.099
304.300	-37.920	0.099
304.400	-15.259	0.099
304.500	-33.079	0.099
304.600	-26.662	0.099
304.700	-18.588	0.099
304.800	-37.523	0.099
304.900	-20.561	0.100
305.000	-27.976	0.099
305.100	-32.862	0.100
305.200	-18.795	0.100
305.300	-33.909	0.100
305.400	-26.965	0.099
305.500	-24.849	0.099
305.600	-28.154	0.100
305.700	-19.504	0.100
305.800	-40.481	0.099
305.900	-11.185	0.100
306.000	-17.359	0.099
306.100	-39.184	0.100
306.200	-18.452	0.100
306.300	-18.999	0.099
306.400	-32.196	0.100
306.500	-30.053	0.099
306.600	-18.833	0.100
306.700	-43.994	0.100
306.800	-22.285	0.100
306.900	-42.143	0.099
307.000	-5.352	0.099
307.100	-9.806	0.100
307.200	-31.342	0.099
307.300	-18.801	0.099
307.400	-30.265	0.099
307.500	-20.919	0.099
307.600	-27.439	0.099
307.700	-20.532	0.099
307.800	-31.544	0.099
307.900	-32.439	0.099
308.000	-11.304	0.100
308.100	-22.252	0.100
308.200	-29.554	0.100
308.300	-15.301	0.100
308.400	-48.743	0.099
308.500	-34.471	0.099
308.600	-23.158	0.099
308.700	-29.102	0.099
308.800	-5.600	0.100
308.900	-16.802	0.099
309.000	-35.969	0.099
309.100	-23.748	0.099
309.200	-25.651	0.099
309.300	-27.570	0.099
309.400	-42.753	0.099
309.500	-11.293	0.100
309.600	-8.641	0.100
309.700	-24.668	0.100
309.800	-18.351	0.100
309.900	-40.158	0.099
310.000	-15.128	0.099
310.100	-19.431	0.099
310.200	-16.253	0.099
310.300	-24.164	0.099
310.400	-40.117	0.099
310.500	-30.486	0.099
310.600	-19.532	0.099
310.700	-30.038	0.099
310.800	-23.763	0.099
310.900	-21.633	0.100
311.000	-25.230	0.099
311.100	-35.033	0.099
311.200	-17.832	0.099
311.300	-28.151	0.099
311.400	-28.102	0.099
311.500	-13.621	0.099
311.600	-39.811	0.099
311.700	-21.438	0.099
311.800	-17.652	0.099
311.900	-16.134	0.099
312.000	-34.878	0.099
312.100	-9.908	0.099
312.200	-18.745	0.099
312.300	-22.976	0.099
312.400	-31.861	0.099
312.500	-25.780	0.099
312.600	4.717	0.099
312.700	-17.019	0.099
312.800	-18.985	0.099
312.900	-32.929	0.099
313.000	-22.028	0.099
313.100	-10.726	0.099
313.200	-30.327	0.099
313.300	-23.558	0.099
313.400	-23.624	0.099
313.500	-25.482	0.100
313.600	-29.866	0.100
313.700	-13.951	0.100
313.800	-35.892	0.100
313.900	-29.452	0.099
314.000	-19.858	0.099
314.100	-35.133	0.099
314.200	-20.664	0.099
314.300	-29.994	0.099
314.400	-30.935	0.099
314.500	-16.195	0.099
314.600	-20.917	0.099
314.700	-28.515	0.099
314.800	-19.871	0.099
314.900	-21.322	0.099
315.000	-31.744	0.099
315.100	-21.657	0.100
315.200	-24.412	0.100
315.300	-23.700	0.099
315.400	-15.686	0.099
315.500	-30.592	0.099
315.600	-23.906	0.100
315.700	-14.328	0.099
315.800	-7.738	0.099
315.900	-32.862	0.099
316.000	-24.143	0.099
316.100	-34.387	0.100
316.200	-20.226	0.099
316.300	-30.306	0.099
316.400	-20.654	0.099
316.500	-23.159	0.099
316.600	-27.746	0.100
316.700	-25.050	0.099
316.800	-35.212	0.099
316.900	-37.196	0.099
317.000	-23.366	0.099
317.100	-17.032	0.099
317.200	-27.831	0.099
317.300	-27.252	0.099
317.400	-21.403	0.099
317.500	-40.709	0.099
317.600	-23.579	0.099
317.700	-7.228	0.099
317.800	-27.391	0.099
317.900	-34.425	0.099
318.000	-27.924	0.099
318.100	-30.649	0.099
318.200	-39.649	0.099
318.300	-32.750	0.099
318.400	-13.684	0.099
318.500	-18.726	0.099
318.600	-52.008	0.099
318.700	-23.948	0.100
318.800	-10.730	0.099
318.900	-34.587	0.099
319.000	-20.697	0.099
319.100	-27.088	0.099
319.200	-29.447	0.099
319.300	-35.345	0.099
319.400	-13.783	0.099
319.500	-30.081	0.099
319.600	-5.953	0.099
319.700	-20.449	0.099
319.800	-33.864	0.099
319.900	-26.359	0.099
320.000	-13.748	0.099
320.100	-34.472	0.099
320.200	-14.079	0.099
320.300	-26.598	0.099
320.400	-16.642	0.099
320.500	-20.870	0.099
320.600	-24.215	0.099
320.700	-17.152	0.099
320.800	-29.524	0.100
320.900	-41.413	0.100
321.000	-5.752	0.099
321.100	-20.570	0.100
321.200	-37.650	0.099
321.300	-12.603	0.100
321.400	-26.859	0.099
321.500	-17.835	0.099
321.600	-23.952	0.099
321.700	-18.427	0.099
321.800	-22.295	0.099
321.900	-20.260	0.099
322.000	-36.461	0.099
322.100	-18.909	0.100
322.200	-35.560	0.100
322.300	-23.546	0.100
322.400	-32.112	0.100
322.500	-23.158	0.099
322.600	-35.248	0.100
322.700	-29.932	0.099
322.800	-7.984	0.099
322.900	-9.880	0.100
323.000	-49.713	0.099
323.100	-33.677	0.099
323.200	-16.281	0.099
323.300	-13.925	0.099
323.400	-29.581	0.099
323.500	-17.365	0.099
323.600	-27.198	0.099
323.700	-10.224	0.099
323.800	-21.021	0.099
323.900	-26.654	0.099
324.000	-26.370	0.099
324.100	-23.071	0.099
324.200	-25.237	0.099
324.300	-19.530	0.099
324.400	-30.717	0.099
324.500	-28.677	0.099
324.600	-34.249	0.099
324.700	-28.231	0.099
324.800	-33.053	0.099
324.900	-40.142	0.099
325.000	-11.538	0.099
325.100	-7.798	0.100
325.200	-25.463	0.099
325.300	-37.917	0.099
325.400	-25.745	0.099
325.500	-13.765	0.099
325.600	-7.990	0.099
325.700	-28.348	0.099
325.800	-24.137	0.100
325.900	-23.000	0.099
326.000	-28.027	0.099
326.100	-18.237	0.099
326.200	-34.870	0.099
326.300	-17.709	0.099
326.400	-32.188	0.100
326.500	-30.854	0.099
326.600	-18.571	0.099
326.700	-30.315	0.100
326.800	-22.487	0.100
326.900	-13.669	0.099
327.000	-12.239	0.099
327.100	-14.126	0.099
327.200	-42.677	0.099
327.300	-16.143	0.099
327.400	-22.544	0.099
327.500	-44.015	0.099
327.600	-6.761	0.099
327.700	-34.284	0.099
327.800	-17.077	0.099
327.900	-32.831	0.099
328.000	-27.479	0.099
328.100	-27.162	0.099
328.200	-26.756	0.099
328.300	-9.439	0.099
328.400	-34.392	0.100
328.500	-13.931	0.099
328.600	-21.346	0.099
328.700	-26.838	0.099
328.800	-30.450	0.099
328.900	-31.256	0.099
329.000	-19.473	0.099
329.100	-33.119	0.099
329.200	-10.146	0.099
329.300	-31.670	0.099
329.400	-11.411	0.099
329.500	-26.696	0.099
329.600	-26.370	0.099
329.700	-26.335	0.099
329.800	-27.468	0.099
329.900	-13.106	0.099
330.000	-20.089	0.100
330.100	-15.697	0.099
330.200	-14.842	0.099
330.300	12.887	0.099
330.400	10.028	0.099
330.500	6.546	0.099
330.600	19.857	0.100
330.700	19.410	0.099
330.800	15.558	0.099
330.900	16.681	0.099
331.000	53.060	0.099
331.100	32.754	0.100
331.200	21.522	0.099
331.300	17.446	0.099
331.400	19.911	0.099
331.500	31.181	0.100
331.600	38.606	0.099
331.700	27.701	0.099
331.800	25.286	0.099
331.900	24.188	0.099
332.000	22.307	0.099
332.100	1.282	0.099
332.200	26.072	0.099
332.300	23.718	0.099
332.400	29.607	0.099
332.500	25.783	0.099
332.600	28.353	0.099
332.700	10.790	0.099
332.800	16.063	0.100
332.900	34.718	0.099
333.000	5.540	0.099
333.100	26.864	0.099
333.200	18.914	0.099
333.300	13.330	0.099
333.400	19.494	0.099
333.500	10.559	0.099
333.600	21.767	0.099
333.700	16.392	0.099
333.800	12.271	0.099
333.900	16.397	0.100
334.000	14.504	0.099
334.100	18.133	0.099
334.200	15.778	0.099
334.300	8.900	0.100
334.400	17.524	0.099
334.500	8.114	0.099
334.600	9.306	0.099
334.700	11.535	0.099
334.800	15.453	0.099
334.900	9.436	0.099
335.000	16.054	0.099
335.100	13.218	0.099
335.200	17.128	0.099
335.300	7.846	0.099
335.400	24.358	0.099
335.500	21.128	0.099
335.600	25.627	0.099
335.700	17.504	0.099
335.800	10.423	0.099
335.900	19.405	0.099
336.000	16.299	0.099
336.100	18.328	0.099
336.200	30.053	0.100
336.300	26.226	0.100
336.400	7.109	0.099
336.500	12.738	0.099
336.600	38.324	0.099
336.700	29.823	0.099
336.800	23.893	0.099
336.900	35.112	0.099
337.000	6.789	0.099
337.100	34.939	0.099
337.200	5.552	0.099
337.300	38.720	0.099
337.400	23.386	0.100
337.500	18.852	0.099
337.600	18.370	0.099
337.700	20.403	0.099
337.800	30.548	0.099
337.900	26.567	0.099
338.000	21.062	0.099
338.100	36.346	0.099
338.200	29.386	0.099
338.300	36.592	0.099
338.400	19.004	0.099
338.500	29.063	0.099
338.600	28.553	0.099
338.700	37.350	0.099
338.800	47.085	0.100
338.900	37.689	0.099
339.000	34.151	0.099
339.100	39.499	0.100
339.200	44.008	0.099
339.300	28.190	0.099
339.400	20.166	0.100
339.500	26.399	0.099
339.600	26.399	0.099
339.700	34.396	0.099
339.800	32.545	0.100
339.900	15.010	0.099
340.000	47.436	0.099
340.100	48.923	0.099
340.200	33.308	0.100
340.300	33.178	0.100
340.400	34.220	0.100
340.500	42.168	0.099
340.600	35.734	0.099
340.700	26.233	0.099
340.800	27.299	0.100
340.900	27.583	0.099
341.000	41.759	0.099
341.100	50.121	0.099
341.200	31.908	0.099
341.300	29.376	0.100
341.400	44.728	0.100
341.500	31.655	0.099
341.600	48.830	0.099
341.700	50.576	0.099
341.800	50.643	0.099
341.900	27.267	0.100
342.000	46.866	0.099
342.100	42.873	0.099
342.200	39.821	0.099
342.300	34.781	0.099
342.400	40.008	0.099
342.500	41.480	0.099
342.600	21.073	0.099
342.700	23.865	0.099
342.800	71.403	0.099
342.900	39.095	0.100
343.000	35.317	0.099
343.100	56.409	0.099
343.200	31.787	0.099
343.300	30.159	0.100
343.400	37.790	0.099
343.500	28.593	0.100
343.600	54.920	0.100
343.700	52.053	0.100
343.800	26.557	0.099
343.900	63.165	0.099
344.000	32.611	0.100
344.100	58.792	0.100
344.200	54.264	0.100
344.300	45.030	0.100
344.400	33.909	0.099
344.500	41.052	0.100
344.600	70.624	0.100
344.700	32.461	0.099
344.800	53.818	0.100
344.900	34.610	0.099
345.000	40.687	0.099
345.100	61.196	0.099
345.200	39.325	0.100
345.300	40.153	0.100
345.400	51.431	0.099
345.500	33.179	0.099
345.600	56.240	0.099
345.700	45.909	0.100
345.800	54.226	0.099
345.900	38.089	0.100
346.000	35.541	0.100
346.100	44.731	0.100
346.200	53.913	0.100
346.300	33.072	0.099
346.400	51.424	0.100
346.500	55.850	0.099
346.600	52.481	0.099
346.700	44.231	0.099
346.800	50.156	0.099
346.900	54.090	0.099
347.000	55.929	0.099
347.100	53.290	0.099
347.200	45.334	0.099
347.300	31.587	0.099
347.400	44.475	0.099
347.500	50.966	0.099
347.600	63.536	0.099
347.700	55.917	0.100
347.800	26.799	0.100
347.900	50.102	0.099
348.000	66.592	0.100
348.100	37.964	0.099
348.200	66.316	0.100
348.300	48.794	0.099
348.400	50.057	0.099
348.500	55.715	0.099
348.600	62.466	0.099
348.700	44.577	0.099
348.800	58.428	0.099
348.900	55.516	0.099
349.000	47.969	0.100
349.100	50.892	0.099
349.200	46.024	0.099
349.300	26.310	0.099
349.400	85.402	0.099
349.500	47.123	0.099
349.600	45.517	0.099
349.700	62.474	0.099
349.800	55.399	0.099
349.900	47.878	0.099
350.000	63.977	0.099
350.100	56.381	0.099
350.200	52.098	0.099
350.300	36.882	0.099
350.400	63.391	0.099
350.500	59.133	0.099
350.600	52.710	0.099
350.700	50.994	0.099
350.800	49.319	0.099
350.900	58.257	0.099
351.000	45.119	0.099
351.100	57.409	0.099
351.200	67.267	0.099
351.300	51.854	0.099
351.400	56.333	0.099
351.500	48.937	0.099
351.600	68.589	0.099
351.700	50.620	0.099
351.800	60.833	0.099
351.900	47.692	0.099
352.000	58.714	0.099
352.100	59.122	0.099
352.200	57.072	0.100
352.300	59.253	0.100
352.400	57.081	0.099
352.500	50.857	0.099
352.600	52.639	0.099
352.700	60.826	0.099
352.800	36.980	0.099
352.900	56.073	0.100
353.000	57.039	0.099
353.100	65.578	0.099
353.200	32.164	0.099
353.300	63.317	0.099
353.400	61.813	0.100
353.500	59.769	0.099
353.600	47.409	0.099
353.700	61.492	0.099
353.800	59.957	0.099
353.900	58.669	0.099
354.000	59.022	0.099
354.100	48.833	0.099
354.200	59.936	0.100
354.300	60.578	0.099
354.400	51.576	0.099
354.500	59.587	0.099
354.600	36.951	0.099
354.700	59.581	0.099
354.800	54.852	0.100
354.900	52.027	0.099
355.000	71.093	0.099
355.100	44.039	0.099
355.200	65.382	0.100
355.300	63.588	0.099
355.400	50.929	0.099
355.500	73.723	0.099
355.600	51.940	0.099
355.700	50.722	0.099
355.800	50.055	0.099
355.900	46.336	0.099
356.000	75.806	0.099
356.100	68.409	0.099
356.200	63.368	0.099
356.300	71.536	0.099
356.400	55.107	0.099
356.500	63.853	0.099
356.600	31.821	0.100
356.700	47.600	0.099
356.800	81.829	0.099
356.900	71.525	0.099
357.000	31.812	0.100
357.100	51.731	0.099
357.200	47.878	0.099
357.300	69.808	0.100
357.400	55.517	0.099
357.500	54.902	0.099
357.600	58.965	0.099
357.700	43.303	0.099
357.800	50.235	0.099
357.900	63.238	0.099
358.000	70.498	0.099
358.100	52.810	0.099
358.200	55.996	0.100
358.300	67.655	0.099
358.400	64.499	0.099
358.500	62.847	0.099
358.600	66.328	0.099
358.700	63.435	0.099
358.800	60.213	0.099
358.900	55.318	0.099
359.000	67.324	0.099
359.100	62.608	0.099
359.200	76.952	0.099
359.300	61.928	0.099
359.400	55.721	0.099
359.500	65.575	0.099
359.600	63.944	0.099
359.700	59.364	0.099
359.800	71.008	0.099
359.900	63.673	0.099
360.000	61.974	0.099
360.100	52.975	0.100
360.200	47.104	0.099
360.300	67.814	0.100
360.400	63.811	0.099
360.500	64.394	0.099
360.600	48.310	0.099
360.700	87.823	0.099
360.800	61.622	0.099
360.900	57.431	0.100
361.000	75.389	0.100
361.100	62.636	0.100
361.200	60.662	0.099
361.300	64.355	0.100
361.400	50.727	0.099
361.500	68.101	0.099
361.600	66.393	0.100
361.700	69.880	0.100
361.800	60.756	0.099
361.900	76.036	0.100
362.000	66.463	0.099
362.100	73.922	0.100
362.200	50.511	0.099
362.300	65.845	0.099
362.400	65.661	0.099
362.500	68.279	0.099
362.600	73.451	0.100
362.700	68.506	0.099
362.800	60.274	0.099
362.900	57.808	0.099
363.000	75.819	0.099
363.100	62.309	0.099
363.200	80.893	0.099
363.300	43.711	0.099
363.400	65.282	0.099
363.500	69.413	0.099
363.600	52.488	0.099
363.700	64.578	0.099
363.800	65.589	0.099
363.900	62.131	0.099
364.000	62.813	0.099
364.100	68.289	0.100
364.200	56.915	0.099
364.300	67.864	0.099
364.400	70.496	0.099
364.500	69.434	0.100
364.600	72.414	0.099
364.700	77.386	0.099
364.800	65.537	0.099
364.900	61.073	0.099
365.000	63.454	0.099
365.100	77.909	0.099
365.200	71.052	0.099
365.300	71.172	0.099
365.400	78.298	0.099
365.500	74.904	0.099
365.600	71.641	0.100
365.700	66.240	0.099
365.800	69.000	0.100
365.900	62.712	0.099
366.000	67.826	0.099
366.100	70.878	0.099
366.200	87.361	0.100
366.300	76.240	0.099
366.400	65.803	0.100
366.500	73.733	0.100
366.600	57.479	0.099
366.700	51.846	0.100
366.800	89.643	0.099
366.900	54.500	0.100
367.000	74.844	0.100
367.100	76.444	0.099
367.200	71.398	0.099
367.300	59.884	0.100
367.400	67.526	0.100
367.500	68.984	0.099
367.600	77.231	0.100
367.700	79.237	0.100
367.800	85.085	0.099
367.900	80.076	0.100
368.000	59.939	0.100
368.100	66.192	0.100
368.200	78.422	0.100
368.300	70.578	0.100
368.400	50.859	0.100
368.500	69.665	0.099
368.600	77.452	0.100
368.700	75.850	0.099
368.800	67.754	0.100
368.900	69.107	0.099
369.000	78.305	0.099
369.100	75.850	0.099
369.200	63.342	0.100
369.300	70.536	0.099
369.400	72.680	0.099
369.500	77.033	0.100
369.600	67.698	0.100
369.700	76.378	0.100
369.800	79.783	0.099
369.900	58.792	0.099
370.000	74.214	0.100
370.100	60.771	0.099
370.200	88.270	0.100
370.300	58.993	0.099
370.400	88.606	0.099
370.500	72.148	0.099
370.600	63.539	0.099
370.700	70.406	0.099
370.800	74.432	0.099
370.900	63.099	0.099
371.000	79.268	0.099
371.100	72.709	0.100
371.200	72.938	0.100
371.300	58.747	0.100
371.400	78.265	0.100
371.500	64.323	0.100
371.600	92.366	0.099
371.700	73.819	0.099
371.800	70.780	0.100
371.900	62.285	0.100
372.000	63.581	0.100
372.100	62.488	0.100
372.200	78.420	0.099
372.300	70.747	0.099
372.400	79.219	0.100
372.500	72.433	0.100
372.600	65.206	0.099
372.700	60.976	0.100
372.800	84.712	0.100
372.900	74.298	0.100
373.000	62.365	0.099
373.100	95.296	0.099
373.200	73.874	0.099
373.300	55.526	0.100
373.400	61.457	0.099
373.500	72.797	0.099
373.600	58.814	0.100
373.700	79.942	0.099
373.800	88.220	0.099
373.900	76.289	0.099
374.000	51.768	0.100
374.100	79.462	0.100
374.200	80.710	0.100
374.300	58.180	0.100
374.400	84.115	0.099
374.500	77.533	0.099
374.600	78.807	0.099
374.700	78.475	0.100
374.800	83.323	0.099
374.900	71.307	0.099
375.000	78.571	0.099
375.100	58.983	0.099
375.200	75.024	0.100
375.300	64.126	0.099
375.400	71.536	0.100
375.500	78.453	0.099
375.600	84.545	0.099
375.700	81.980	0.099
375.800	70.103	0.099
375.900	71.257	0.100
376.000	75.994	0.100
376.100	75.952	0.099
376.200	67.149	0.099
376.300	88.066	0.100
376.400	56.426	0.099
376.500	73.735	0.099
376.600	73.649	0.100
376.700	78.084	0.100
376.800	62.909	0.100
376.900	94.521	0.099
377.000	78.975	0.099
377.100	97.622	0.100
377.200	81.437	0.100
377.300	71.979	0.100
377.400	73.427	0.100
377.500	82.555	0.100
377.600	81.280	0.100
377.700	73.605	0.100
377.800	73.072	0.100
377.900	67.413	0.100
378.000	68.923	0.100
378.100	57.971	0.100
378.200	67.430	0.100
378.300	75.455	0.100
378.400	77.467	0.099
378.500	89.676	0.100
378.600	66.127	0.100
378.700	70.162	0.100
378.800	83.771	0.100
378.900	86.019	0.100
379.000	69.104	0.100
379.100	65.758	0.100
379.200	73.454	0.099
379.300	78.070	0.100
379.400	73.365	0.100
379.500	58.590	0.100
379.600	75.928	0.099
379.700	80.546	0.100
379.800	79.324	0.099
379.900	82.582	0.100
380.000	83.808	0.100
380.100	68.706	0.100
380.200	43.764	0.100
380.300	60.734	0.100
380.400	78.947	0.100
380.500	60.374	0.100
380.600	85.344	0.100
380.700	88.615	0.100
380.800	73.009	0.100
380.900	66.257	0.100
381.000	76.092	0.099
381.100	66.770	0.099
381.200	75.131	0.100
381.300	67.396	0.099
381.400	79.435	0.100
381.500	74.665	0.100
381.600	71.868	0.100
381.700	78.674	0.100
381.800	75.961	0.100
381.900	76.045	0.100
382.000	75.644	0.100
382.100	71.343	0.100
382.200	57.145	0.100
382.300	77.245	0.100
382.400	72.867	0.100
382.500	59.849	0.100
382.600	74.967	0.100
382.700	73.232	0.100
382.800	72.057	0.100
382.900	60.733	0.100
383.000	72.131	0.100
383.100	61.757	0.100
383.200	69.570	0.100
383.300	69.215	0.100
383.400	94.863	0.100
383.500	67.919	0.100
383.600	78.194	0.100
383.700	69.813	0.100
383.800	77.763	0.100
383.900	74.832	0.100
384.000	76.457	0.100
384.100	83.208	0.100
384.200	71.321	0.100
384.300	66.881	0.100
384.400	67.979	0.099
384.500	75.190	0.099
384.600	81.490	0.100
384.700	69.912	0.100
384.800	64.516	0.100
384.900	75.683	0.100
385.000	74.854	0.100
385.100	60.826	0.100
385.200	77.577	0.100
385.300	64.676	0.100
385.400	62.987	0.100
385.500	85.336	0.100
385.600	68.458	0.100
385.700	78.078	0.100
385.800	71.790	0.100
385.900	58.020	0.099
386.000	74.349	0.100
386.100	76.205	0.100
386.200	53.381	0.100
386.300	75.787	0.099
386.400	73.110	0.100
386.500	87.209	0.100
386.600	80.505	0.100
386.700	69.589	0.100
386.800	71.423	0.100
386.900	62.232	0.100
387.000	62.698	0.100
387.100	68.011	0.100
387.200	88.133	0.099
387.300	64.499	0.100
387.400	75.939	0.099
387.500	74.961	0.100
387.600	66.143	0.100
387.700	70.940	0.100
387.800	73.572	0.099
387.900	69.965	0.100
388.000	61.222	0.100
388.100	77.253	0.099
388.200	90.835	0.100
388.300	74.835	0.100
388.400	72.361	0.100
388.500	51.694	0.100
388.600	67.715	0.100
388.700	83.824	0.100
388.800	64.460	0.100
388.900	85.393	0.099
389.000	79.645	0.100
389.100	61.879	0.100
389.200	69.093	0.100
389.300	71.791	0.100
389.400	58.262	0.100
389.500	69.670	0.100
389.600	68.380	0.100
389.700	72.334	0.100
389.800	70.853	0.100
389.900	67.214	0.100
390.000	84.894	0.100
390.100	72.314	0.100
390.200	57.466	0.100
390.300	54.849	0.100
390.400	63.004	0.099
390.500	30.583	0.100
390.600	34.959	0.100
390.700	35.469	0.100
390.800	36.298	0.100
390.900	2.151	0.100
391.000	-2.792	0.100
391.100	11.628	0.100
391.200	0.839	0.100
391.300	-13.988	0.100
391.400	-1.556	0.100
391.500	-16.480	0.100
391.600	-12.116	0.100
391.700	-25.338	0.100
391.800	-31.689	0.100
391.900	-36.977	0.100
392.000	-25.259	0.100
392.100	-26.579	0.100
392.200	-64.574	0.100
392.300	-42.373	0.100
392.400	-38.157	0.100
392.500	-58.947	0.100
392.600	-29.468	0.099
392.700	-35.350	0.100
392.800	-49.995	0.100
392.900	-35.438	0.099
393.000	-53.525	0.100
393.100	-29.728	0.100
393.200	-57.131	0.100
393.300	-48.738	0.100
393.400	-38.088	0.100
393.500	-57.836	0.100
393.600	-51.654	0.100
393.700	-43.612	0.099
393.800	-41.514	0.100
393.900	-41.484	0.100
394.000	-47.251	0.099
394.100	-34.727	0.100
394.200	-40.224	0.100
394.300	-42.279	0.100
394.400	-38.160	0.100
394.500	-36.851	0.100
394.600	-61.799	0.100
394.700	-41.771	0.100
394.800	-20.925	0.100
394.900	-43.512	0.100
395.000	-61.542	0.100
395.100	-52.074	0.100
395.200	-37.890	0.100
395.300	-31.431	0.100
395.400	-49.991	0.100
395.500	-18.655	0.100
395.600	-36.865	0.099
395.700	-33.441	0.099
395.800	-28.714	0.100
395.900	-39.260	0.100
396.000	-38.369	0.100
396.100	-24.787	0.100
396.200	-39.574	0.099
396.300	-35.961	0.099
396.400	-27.821	0.100
396.500	-25.336	0.100
396.600	-23.824	0.100
396.700	-62.268	0.100
396.800	-27.938	0.099
396.900	-33.944	0.100
397.000	-38.158	0.099
397.100	-22.708	0.100
397.200	-22.193	0.100
397.300	-40.170	0.099
397.400	-42.297	0.100
397.500	-23.853	0.100
397.600	-36.206	0.100
397.700	-43.714	0.100
397.800	-38.574	0.100
397.900	-28.534	0.099
398.000	-35.078	0.099
398.100	-25.858	0.099
398.200	-43.305	0.100
398.300	-41.099	0.100
398.400	-36.055	0.100
398.500	-29.282	0.099
398.600	-21.920	0.100
398.700	-45.932	0.100
398.800	-29.706	0.099
398.900	-26.038	0.100
399.000	-18.868	0.100
399.100	-31.400	0.099
399.200	-35.964	0.100
399.300	-36.777	0.100
399.400	-43.212	0.099
399.500	-24.486	0.100
399.600	-28.020	0.099
399.700	-23.358	0.099
399.800	-38.683	0.099
399.900	-50.847	0.099
400.000	-17.088	0.099
400.100	-36.305	0.099
400.200	-29.654	0.099
400.300	-37.052	0.099
400.400	-47.007	0.099
400.500	-25.507	0.099
400.600	-32.753	0.099
400.700	-21.649	0.100
400.800	-44.188	0.099
400.900	-26.323	0.099
401.000	-41.832	0.100
401.100	-33.285	0.100
401.200	-23.394	0.099
401.300	-30.240	0.100
401.400	-49.863	0.100
401.500	-41.205	0.099
401.600	-31.286	0.099
401.700	-18.684	0.100
401.800	-26.618	0.100
401.900	-34.077	0.099
402.000	-47.025	0.099
402.100	-41.923	0.099
402.200	-45.266	0.100
402.300	-19.216	0.099
402.400	-40.572	0.099
402.500	-31.838	0.099
402.600	-24.161	0.099
402.700	-30.732	0.099
402.800	-32.900	0.100
402.900	-44.904	0.099
403.000	-35.799	0.099
403.100	-29.314	0.100
403.200	-35.626	0.099
403.300	-44.545	0.099
403.400	-28.294	0.100
403.500	-39.626	0.100
403.600	-43.872	0.099
403.700	-24.020	0.100
403.800	-18.622	0.100
403.900	-30.868	0.100
404.000	-14.878	0.099
404.100	-29.021	0.099
404.200	-50.658	0.099
404.300	-49.087	0.099
404.400	-29.334	0.099
404.500	-35.919	0.099
404.600	-25.053	0.099
404.700	-24.486	0.100
404.800	-38.167	0.100
404.900	-30.757	0.099
405.000	-38.876	0.100
405.100	-32.475	0.099
405.200	-38.847	0.099
405.300	-38.242	0.099
405.400	-31.081	0.099
405.500	-31.250	0.099
405.600	-42.621	0.099
405.700	-38.735	0.099
405.800	-48.128	0.099
405.900	-30.404	0.100
406.000	-24.788	0.099
406.100	-33.491	0.099
406.200	-29.927	0.099
406.300	-31.740	0.099
406.400	-40.776	0.099
406.500	-51.011	0.099
406.600	-35.148	0.100
406.700	-35.981	0.099
406.800	-33.369	0.099
406.900	-28.004	0.099
407.000	-32.247	0.099
407.100	-43.825	0.099
407.200	-27.196	0.100
407.300	-36.133	0.099
407.400	-29.612	0.099
407.500	-49.367	0.099
407.600	-23.060	0.099
407.700	-43.617	0.099
407.800	-28.609	0.099
407.900	-44.710	0.099
408.000	-41.013	0.099
408.100	-24.317	0.099
408.200	-44.287	0.099
408.300	-21.200	0.099
408.400	-33.344	0.099
408.500	-33.394	0.100
408.600	-33.082	0.099
408.700	-31.029	0.100
408.800	-36.939	0.099
408.900	-39.004	0.099
409.000	-22.008	0.100
409.100	-36.405	0.099
409.200	-27.525	0.099
409.300	-50.961	0.099
409.400	-42.721	0.099
409.500	-18.357	0.099
409.600	-33.432	0.100
409.700	-49.988	0.099
409.800	-36.025	0.100
409.900	-39.926	0.100
410.000	-31.121	0.100
410.100	-24.527	0.099
410.200	-32.413	0.099
410.300	-35.542	0.099
410.400	-43.044	0.099
410.500	-39.359	0.099
410.600	-39.103	0.099
410.700	-50.397	0.099
410.800	-28.955	0.100
410.900	-33.676	0.099
411.000	-33.195	0.099
411.100	-43.333	0.100
411.200	-40.019	0.099
411.300	-35.320	0.099
411.400	-39.726	0.100
411.500	-37.349	0.099
411.600	-49.768	0.099
411.700	-32.923	0.099
411.800	-36.533	0.099
411.900	-39.150	0.099
412.000	-33.677	0.099
412.100	-32.820	0.099
412.200	-37.620	0.099
412.300	-38.326	0.099
412.400	-46.879	0.099
412.500	-31.491	0.099
412.600	-30.607	0.099
412.700	-47.538	0.099
412.800	-43.264	0.099
412.900	-20.076	0.099
413.000	-35.827	0.099
413.100	-29.862	0.100
413.200	-46.860	0.099
413.300	-26.366	0.099
413.400	-51.357	0.099
413.500	-35.966	0.100
413.600	-43.042	0.099
413.700	-34.979	0.099
413.800	-36.172	0.099
413.900	-35.740	0.099
414.000	-16.237	0.099
414.100	-35.239	0.099
414.200	-47.334	0.099
414.300	-25.873	0.099
414.400	-33.536	0.100
414.500	-36.980	0.099
414.600	-34.293	0.099
414.700	-41.187	0.099
414.800	-34.868	0.099
414.900	-33.430	0.099
415.000	-27.403	0.099
415.100	-37.871	0.099
415.200	-33.974	0.099
415.300	-31.245	0.099
415.400	-40.513	0.099
415.500	-50.481	0.099
415.600	-29.671	0.099
415.700	-40.037	0.099
415.800	-33.635	0.099
415.900	-50.752	0.099
416.000	-36.950	0.099
416.100	-22.346	0.099
416.200	-45.296	0.099
416.300	-31.447	0.100
416.400	-28.693	0.100
416.500	-35.424	0.099
416.600	-22.360	0.099
416.700	-22.356	0.099
416.800	-48.855	0.099
416.900	-44.895	0.099
417.000	-45.747	0.099
417.100	-27.227	0.099
417.200	-41.942	0.099
417.300	-22.105	0.099
417.400	-23.083	0.099
417.500	-35.193	0.099
417.600	-46.342	0.099
417.700	-40.063	0.099
417.800	-25.174	0.099
417.900	-24.690	0.099
418.000	-24.876	0.099
418.100	-46.304	0.099
418.200	-34.358	0.099
418.300	-35.719	0.099
418.400	-33.523	0.099
418.500	-26.590	0.099
418.600	-12.876	0.099
418.700	-47.414	0.099
418.800	-24.627	0.099
418.900	-34.252	0.099
419.000	-32.728	0.099
419.100	-38.716	0.099
419.200	-40.970	0.099
419.300	-30.288	0.099
419.400	-35.650	0.099
419.500	-33.288	0.099
419.600	-34.679	0.099
419.700	-26.925	0.099
419.800	-18.936	0.099
419.900	-19.677	0.099
420.000	-42.955	0.099
420.100	-31.184	0.099
420.200	-41.789	0.099
420.300	-42.341	0.099
420.400	-34.210	0.099
420.500	-27.477	0.099
420.600	-26.544	0.099
420.700	-27.775	0.099
420.800	-33.613	0.099
420.900	-37.713	0.099
421.000	-25.022	0.099
421.100	-19.869	0.099
421.200	-34.830	0.099
421.300	-29.289	0.099
421.400	-34.609	0.099
421.500	-33.268	0.099
421.600	-43.317	0.099
421.700	-40.556	0.099
421.800	-31.164	0.099
421.900	-28.554	0.099
422.000	-24.463	0.099
422.100	-34.743	0.099
422.200	-32.068	0.099
422.300	-45.460	0.099
422.400	-33.411	0.099
422.500	-25.916	0.099
422.600	-15.670	0.099
422.700	-39.994	0.099
422.800	-36.622	0.099
422.900	-41.813	0.099
423.000	-34.511	0.099
423.100	-40.439	0.099
423.200	-25.153	0.099
423.300	-37.429	0.099
423.400	-32.383	0.099
423.500	-19.593	0.099
423.600	-19.305	0.099
423.700	-31.007	0.099
423.800	-32.211	0.099
423.900	-57.642	0.099
424.000	-25.056	0.099
424.100	-26.156	0.099
424.200	-9.820	0.099
424.300	-37.758	0.099
424.400	-28.986	0.099
424.500	-31.482	0.099
424.600	-28.977	0.099
424.700	-45.983	0.099
424.800	-41.813	0.099
424.900	-17.904	0.099
425.000	-26.970	0.099
425.100	-42.621	0.099
425.200	-33.417	0.099
425.300	-30.237	0.099
425.400	-41.109	0.099
425.500	-41.233	0.099
425.600	-27.515	0.099
425.700	-11.073	0.099
425.800	-21.196	0.099
425.900	-37.240	0.099
426.000	-39.653	0.099
426.100	-21.745	0.099
426.200	-42.821	0.099
426.300	-39.343	0.099
426.400	-35.518	0.099
426.500	-32.510	0.099
426.600	-25.836	0.099
426.700	-44.458	0.099
426.800	-19.157	0.099
426.900	-26.053	0.099
427.000	-32.359	0.099
427.100	-30.277	0.099
427.200	-28.882	0.099
427.300	-40.770	0.099
427.400	-28.484	0.099
427.500	-38.734	0.099
427.600	-37.007	0.099
427.700	-23.757	0.099
427.800	-33.389	0.099
427.900	-32.655	0.099
428.000	-34.915	0.099
428.100	-18.177	0.099
428.200	-38.364	0.099
428.300	-31.123	0.099
428.400	-50.714	0.099
428.500	-20.771	0.099
428.600	-34.675	0.099
428.700	-14.518	0.099
428.800	-39.175	0.099
428.900	-26.075	0.099
429.000	-21.910	0.099
429.100	-38.211	0.099
429.200	-15.680	0.099
429.300	-25.160	0.099
429.400	-28.384	0.099
429.500	-36.064	0.099
429.600	-27.234	0.099
429.700	-37.147	0.099
429.800	-38.848	0.099
429.900	-40.727	0.099
430.000	-37.316	0.099
430.100	-54.667	0.099
430.200	-34.680	0.099
430.300	-25.369	0.099
430.400	-38.114	0.099
430.500	-27.790	0.099
430.600	-26.463	0.099
430.700	-20.518	0.099
430.800	-37.011	0.099
430.900	-24.056	0.099
431.000	-31.078	0.099
431.100	-32.273	0.099
431.200	-32.242	0.099
431.300	-35.712	0.099
431.400	-39.246	0.099
431.500	-28.838	0.099
431.600	-30.152	0.099
431.700	-16.608	0.099
431.800	-28.396	0.099
431.900	-45.581	0.099
432.000	-25.718	0.099
432.100	-30.465	0.099
432.200	-34.323	0.099
432.300	-36.815	0.099
432.400	-19.092	0.099
432.500	-20.881	0.099
432.600	-46.711	0.099
432.700	-40.074	0.099
432.800	-26.844	0.099
432.900	-47.548	0.099
433.000	-32.327	0.099
433.100	-9.848	0.099
433.200	-24.582	0.099
433.300	-27.495	0.099
433.400	-11.152	0.099
433.500	-55.860	0.099
433.600	-30.114	0.099
433.700	-22.492	0.099
433.800	-24.039	0.099
433.900	-28.792	0.099
434.000	-33.022	0.099
434.100	-25.816	0.099
434.200	-25.807	0.099
434.300	-26.906	0.099
434.400	-26.447	0.099
434.500	-24.418	0.099
434.600	-25.967	0.099
434.700	-20.680	0.099
434.800	-36.296	0.099
434.900	-31.831	0.099
435.000	-44.620	0.099
435.100	-27.850	0.099
435.200	-28.595	0.099
435.300	-30.627	0.099
435.400	-45.082	0.099
435.500	-34.488	0.099
435.600	-35.267	0.099
435.700	-28.123	0.099
435.800	-42.802	0.099
435.900	-22.989	0.099
436.000	-40.732	0.099
436.100	-38.717	0.099
436.200	-22.746	0.099
436.300	-20.841	0.099
436.400	-29.510	0.099
436.500	-30.598	0.099
436.600	-28.423	0.099
436.700	-36.127	0.099
436.800	-42.583	0.099
436.900	-23.086	0.099
437.000	-34.023	0.099
437.100	-27.262	0.099
437.200	-33.122	0.099
437.300	-20.201	0.099
437.400	-32.193	0.099
437.500	-22.715	0.099
437.600	-31.497	0.099
437.700	-37.305	0.099
437.800	-22.677	0.099
437.900	-33.664	0.099
438.000	-20.575	0.099
438.100	-21.491	0.099
438.200	-31.585	0.099
438.300	-39.774	0.099
438.400	-18.792	0.099
438.500	-31.683	0.099
438.600	-38.378	0.099
438.700	-20.086	0.099
438.800	-31.319	0.099
438.900	-31.113	0.099
439.000	-29.940	0.099
439.100	-47.248	0.099
439.200	-22.154	0.099
439.300	-29.483	0.099
439.400	-32.294	0.099
439.500	-31.080	0.099
439.600	-27.370	0.099
439.700	-25.793	0.099
439.800	-31.726	0.099
439.900	-34.898	0.099
440.000	-34.068	0.099
440.100	-28.235	0.099
440.200	-23.622	0.099
440.300	-24.088	0.099
440.400	-28.873	0.099
440.500	-38.235	0.099
440.600	-22.238	0.099
440.700	-23.901	0.099
440.800	-37.082	0.099
440.900	-35.256	0.099
441.000	-22.648	0.099
441.100	-33.514	0.099
441.200	-23.864	0.099
441.300	-25.504	0.099
441.400	-23.308	0.099
441.500	-36.938	0.099
441.600	-44.382	0.099
441.700	-31.174	0.099
441.800	-30.070	0.099
441.900	-31.678	0.099
442.000	-26.554	0.099
442.100	-33.250	0.099
442.200	-26.491	0.099
442.300	-32.110	0.099
442.400	-26.077	0.099
442.500	-44.082	0.099
442.600	-20.188	0.099
442.700	-34.180	0.099
442.800	-36.378	0.099
442.900	-26.103	0.099
443.000	-29.735	0.099
443.100	-33.759	0.099
443.200	-30.289	0.099
443.300	-25.203	0.099
443.400	-26.442	0.099
443.500	-38.163	0.099
443.600	-23.873	0.099
443.700	-31.450	0.099
443.800	-35.321	0.099
443.900	-24.210	0.099
444.000	-26.627	0.099
444.100	-17.914	0.099
444.200	-30.027	0.099
444.300	-32.444	0.099
444.400	-23.620	0.099
444.500	-41.646	0.099
444.600	-22.785	0.099
444.700	-32.274	0.099
444.800	-45.777	0.099
444.900	-21.525	0.099
445.000	-40.678	0.099
445.100	-27.276	0.099
445.200	-36.855	0.099
445.300	-26.513	0.099
445.400	-25.791	0.099
445.500	-39.764	0.099
445.600	-17.422	0.099
445.700	-20.465	0.099
445.800	-33.009	0.099
445.900	-29.796	0.099
446.000	-30.741	0.099
446.100	-22.464	0.099
446.200	-24.927	0.099
446.300	-16.269	0.099
446.400	-13.785	0.099
446.500	-25.669	0.099
446.600	-28.281	0.099
446.700	-42.962	0.099
446.800	-36.243	0.099
446.900	-26.364	0.099
447.000	-32.343	0.099
447.100	-26.704	0.099
447.200	-33.020	0.099
447.300	-25.194	0.099
447.400	-23.876	0.099
447.500	-29.080	0.099
447.600	-17.541	0.099
447.700	-37.856	0.099
447.800	-30.102	0.099
447.900	-28.099	0.099
448.000	-31.446	0.099
448.100	-21.991	0.099
448.200	-51.959	0.099
448.300	-29.931	0.099
448.400	-16.209	0.099
448.500	-35.378	0.099
448.600	-26.148	0.099
448.700	-41.161	0.099
448.800	-18.863	0.099
448.900	-37.606	0.099
449.000	-51.587	0.099
449.100	-33.991	0.099
449.200	-4.625	0.099
449.300	-28.889	0.099
449.400	-29.082	0.099
449.500	-34.378	0.099
449.600	-40.076	0.099
449.700	-27.907	0.099
449.800	-21.325	0.099
449.900	-24.356	0.099
450.000	-33.651	0.099
450.100	-8.448	0.099
450.200	-44.204	0.099
450.300	-24.959	0.099
450.400	-23.025	0.099
450.500	-31.637	0.099
450.600	-27.506	0.099
450.700	-27.692	0.099
450.800	-12.656	0.099
450.900	-40.268	0.099
451.000	-16.852	0.099
451.100	-17.912	0.099
451.200	-15.713	0.099
451.300	-27.926	0.099
451.400	-25.794	0.099
451.500	-50.879	0.099
451.600	-32.486	0.099
451.700	-20.454	0.099
451.800	-31.606	0.099
451.900	-30.483	0.099
452.000	-32.496	0.099
452.100	-23.051	0.099
452.200	-25.920	0.099
452.300	-5.334	0.099
452.400	-20.713	0.099
452.500	-42.150	0.099
452.600	-21.424	0.099
452.700	-35.482	0.099
452.800	-16.221	0.099
452.900	-27.964	0.099
453.000	-14.993	0.099
453.100	-29.847	0.099
453.200	-33.625	0.099
453.300	-38.843	0.099
453.400	-31.346	0.099
453.500	-26.238	0.099
453.600	-37.879	0.099
453.700	-16.556	0.099
453.800	-22.306	0.099
453.900	-20.801	0.099
454.000	-35.380	0.099
454.100	-23.101	0.099
454.200	-30.904	0.099
454.300	-18.159	0.099
454.400	-23.186	0.099
454.500	-32.099	0.099
454.600	-26.405	0.099
454.700	-24.187	0.099
454.800	-39.173	0.099
454.900	-14.465	0.099
455.000	-36.425	0.099
455.100	-39.593	0.099
455.200	-31.639	0.099
455.300	-35.396	0.099
455.400	-24.269	0.099
455.500	-23.887	0.099
455.600	-29.752	0.099
455.700	-27.353	0.099
455.800	-34.154	0.099
455.900	-32.986	0.099
456.000	-18.758	0.099
456.100	-18.387	0.099
456.200	-28.997	0.099
456.300	-15.198	0.099
456.400	-16.444	0.099
456.500	-35.188	0.099
456.600	-30.161	0.099
456.700	-36.890	0.099
456.800	-21.083	0.099
456.900	-27.700	0.099
457.000	-45.250	0.099
457.100	-26.107	0.099
457.200	-10.869	0.099
457.300	-20.717	0.099
457.400	-24.814	0.099
457.500	-4.894	0.099
457.600	-32.859	0.099
457.700	-34.639	0.099
457.800	-25.056	0.099
457.900	-22.184	0.099
458.000	-39.324	0.099
458.100	-31.848	0.099
458.200	-38.582	0.099
458.300	-19.101	0.099
458.400	-21.972	0.099
458.500	-33.779	0.099
458.600	-24.135	0.099
458.700	-36.066	0.099
458.800	-37.384	0.099
458.900	-28.432	0.099
459.000	-20.266	0.099
459.100	-31.328	0.099
459.200	-34.676	0.099
459.300	-37.281	0.099
459.400	-6.002	0.099
459.500	-39.027	0.099
459.600	-17.677	0.099
459.700	-26.791	0.099
459.800	-37.705	0.099
459.900	-11.881	0.099
460.000	-14.025	0.099
460.100	-29.454	0.099
460.200	-18.578	0.099
460.300	-30.068	0.099
460.400	-44.155	0.099
460.500	-11.273	0.099
460.600	-28.878	0.099
460.700	-23.344	0.099
460.800	-30.720	0.099
460.900	-18.174	0.099
461.000	-28.921	0.099
461.100	-17.113	0.099
461.200	-30.972	0.099
461.300	-21.102	0.099
461.400	-18.943	0.099
461.500	-38.606	0.099
461.600	-29.266	0.099
461.700	-23.605	0.099
461.800	-28.175	0.099
461.900	-22.357	0.099
462.000	-24.388	0.099
462.100	-29.322	0.099
462.200	-22.516	0.099
462.300	-34.075	0.099
462.400	-25.988	0.099
462.500	-33.735	0.099
462.600	-36.750	0.099
462.700	-22.001	0.099
462.800	-38.547	0.099
462.900	-26.655	0.099
463.000	-18.278	0.099
463.100	-18.553	0.099
463.200	-20.841	0.099
463.300	-31.897	0.099
463.400	-12.391	0.099
463.500	-44.105	0.099
463.600	-28.665	0.099
463.700	-30.932	0.099
463.800	-23.989	0.099
463.900	-30.070	0.099
464.000	-27.995	0.099
464.100	-17.435	0.099
464.200	-21.222	0.099
464.300	-17.026	0.099
464.400	-32.827	0.099
464.500	-8.193	0.099
464.600	-27.053	0.099
464.700	-26.913	0.099
464.800	-34.566	0.099
464.900	-23.003	0.099
465.000	-20.707	0.099
465.100	-37.349	0.099
465.200	-24.473	0.099
465.300	-30.552	0.099
465.400	-18.386	0.099
465.500	-32.773	0.099
465.600	-35.665	0.099
465.700	-25.684	0.099
465.800	-25.132	0.099
465.900	-44.485	0.099
466.000	-15.502	0.099
466.100	-26.154	0.099
466.200	-18.612	0.099
466.300	-20.988	0.099
466.400	-30.158	0.099
466.500	-42.644	0.099
466.600	-32.849	0.099
466.700	-26.898	0.099
466.800	-19.958	0.099
466.900	-4.960	0.099
467.000	-32.778	0.099
467.100	-24.439	0.099
467.200	-47.272	0.099
467.300	-26.972	0.099
467.400	-18.399	0.099
467.500	-25.701	0.099
467.600	-31.518	0.099
467.700	-16.251	0.099
467.800	-17.747	0.099
467.900	-25.249	0.099
468.000	-10.154	0.099
468.100	-33.251	0.099
468.200	-21.329	0.099
468.300	-23.936	0.099
468.400	-29.201	0.099
468.500	-16.671	0.099
468.600	-59.735	0.099
468.700	-23.166	0.099
468.800	-21.946	0.099
468.900	-15.252	0.099
469.000	-33.033	0.099
469.100	-22.307	0.099
469.200	-22.698	0.099
469.300	-10.393	0.099
469.400	-19.948	0.099
469.500	-51.285	0.099
469.600	-29.542	0.099
469.700	-21.882	0.099
469.800	-16.317	0.099
469.900	-25.076	0.099
470.000	-43.514	0.099
470.100	-14.342	0.099
470.200	-24.163	0.099
470.300	-33.026	0.099
470.400	-21.441	0.099
470.500	-17.580	0.099
470.600	-29.300	0.099
470.700	-28.811	0.099
470.800	-31.887	0.099
470.900	-35.512	0.099
471.000	-22.948	0.099
471.100	-31.578	0.099
471.200	-19.714	0.099
471.300	-33.134	0.099
471.400	-31.343	0.099
471.500	-18.633	0.099
471.600	-16.826	0.099
471.700	-30.139	0.099
471.800	-34.864	0.099
471.900	-19.979	0.099
472.000	-32.435	0.099
472.100	-44.382	0.099
472.200	-31.394	0.099
472.300	-26.791	0.099
472.400	-28.283	0.099
472.500	-9.328	0.099
472.600	-12.735	0.099
472.700	-39.781	0.099
472.800	-3.918	0.099
472.900	-43.944	0.099
473.000	-22.769	0.099
473.100	-16.195	0.099
473.200	-18.282	0.099
473.300	-24.665	0.099
473.400	-24.599	0.099
473.500	-25.291	0.099
473.600	-24.725	0.099
473.700	-26.440	0.099
473.800	-21.574	0.099
473.900	-25.015	0.099
474.000	-26.289	0.099
474.100	-17.988	0.099
474.200	-39.223	0.099
474.300	-24.254	0.099
474.400	-22.313	0.099
474.500	-20.041	0.099
474.600	-33.252	0.099
474.700	-20.945	0.099
474.800	-14.621	0.099
474.900	-35.718	0.099
475.000	-17.299	0.099
475.100	-14.143	0.099
475.200	-28.183	0.099
475.300	-26.106	0.099
475.400	-13.647	0.099
475.500	-12.751	0.099
475.600	-30.967	0.099
475.700	-27.047	0.099
475.800	-24.311	0.099
475.900	-17.262	0.099
476.000	-38.144	0.099
476.100	-20.641	0.099
476.200	-35.192	0.099
476.300	-33.763	0.099
476.400	-29.450	0.099
476.500	-36.693	0.099
476.600	-3.375	0.099
476.700	-10.234	0.099
476.800	-31.351	0.099
476.900	-36.814	0.099
477.000	-13.716	0.099
477.100	-21.639	0.099
477.200	-26.536	0.099
477.300	-26.824	0.099
477.400	-37.925	0.099
477.500	-41.206	0.099
477.600	-34.092	0.099
477.700	-7.904	0.099
477.800	-28.184	0.099
477.900	-22.718	0.099
478.000	-12.591	0.099
478.100	-11.517	0.099
478.200	-25.332	0.099
478.300	-33.821	0.099
478.400	-28.210	0.099
478.500	-29.293	0.099
478.600	-22.975	0.099
478.700	-27.323	0.099
478.800	-2.941	0.099
478.900	-21.256	0.099
479.000	-32.004	0.099
479.100	-20.859	0.099
479.200	-28.226	0.099
479.300	-21.642	0.099
479.400	-24.668	0.099
479.500	-13.981	0.099
479.600	-29.624	0.099
479.700	-28.546	0.099
479.800	-31.593	0.099
479.900	-19.334	0.099
480.000	-18.358	0.099
480.100	-29.865	0.099
480.200	-17.840	0.099
480.300	-17.753	0.099
480.400	14.185	0.099
480.500	4.281	0.099
480.600	10.044	0.099
480.700	19.575	0.099
480.800	19.523	0.099
480.900	32.017	0.099
481.000	14.433	0.099
481.100	34.887	0.099
481.200	21.690	0.099
481.300	19.446	0.099
481.400	16.853	0.099
481.500	25.342	0.099
481.600	26.670	0.099
481.700	17.538	0.099
481.800	46.259	0.099
481.900	21.317	0.099
482.000	25.072	0.099
482.100	15.102	0.099
482.200	9.666	0.099
482.300	23.555	0.099
482.400	20.002	0.099
482.500	33.416	0.099
482.600	25.440	0.099
482.700	25.390	0.099
482.800	27.477	0.099
482.900	8.146	0.099
483.000	22.727	0.099
483.100	1.202	0.099
483.200	12.843	0.099
483.300	25.929	0.099
483.400	32.342	0.099
483.500	3.830	0.099
483.600	11.370	0.099
483.700	1.636	0.099
483.800	11.680	0.099
483.900	23.317	0.099
484.000	25.055	0.099
484.100	6.365	0.099
484.200	11.868	0.099
484.300	13.334	0.099
484.400	18.774	0.099
484.500	7.544	0.099
484.600	7.390	0.099
484.700	22.449	0.099
484.800	14.447	0.099
484.900	4.831	0.099
485.000	16.026	0.099
485.100	-8.339	0.099
485.200	26.204	0.099
485.300	8.721	0.099
485.400	22.599	0.099
485.500	-4.130	0.099
485.600	31.662	0.099
485.700	11.163	0.099
485.800	21.422	0.099
485.900	25.577	0.099
486.000	20.104	0.099
486.100	10.256	0.099
486.200	11.926	0.099
486.300	1.418	0.099
486.400	23.862	0.099
486.500	30.768	0.099
486.600	27.018	0.099
486.700	13.421	0.099
486.800	18.674	0.099
486.900	24.821	0.099
487.000	35.587	0.099
487.100	28.422	0.099
487.200	28.385	0.099
487.300	25.997	0.099
487.400	26.326	0.099
487.500	15.317	0.099
487.600	44.033	0.099
487.700	37.965	0.099
487.800	25.007	0.099
487.900	26.679	0.099
488.000	28.976	0.099
488.100	16.289	0.099
488.200	35.663	0.099
488.300	33.800	0.099
488.400	16.667	0.099
488.500	32.613	0.099
488.600	22.251	0.099
488.700	24.956	0.099
488.800	29.144	0.100
488.900	38.296	0.100
489.000	38.254	0.100
489.100	28.880	0.100
489.200	39.715	0.100
489.300	49.498	0.100
489.400	22.929	0.099
489.500	45.362	0.100
489.600	28.717	0.100
489.700	43.506	0.100
489.800	37.206	0.100
489.900	40.782	0.100
490.000	19.067	0.100
490.100	35.696	0.100
490.200	39.906	0.100
490.300	42.326	0.100
490.400	39.133	0.100
490.500	40.043	0.100
490.600	34.993	0.100
490.700	39.570	0.100
490.800	26.453	0.100
490.900	45.235	0.100
491.000	49.446	0.100
491.100	33.362	0.100
491.200	25.071	0.100
491.300	27.848	0.100
491.400	42.330	0.100
491.500	35.584	0.100
491.600	36.936	0.100
491.700	40.129	0.100
491.800	45.714	0.100
491.900	34.978	0.100
492.000	47.354	0.100
492.100	33.930	0.100
492.200	46.832	0.100
492.300	47.752	0.100
492.400	44.017	0.100
492.500	34.434	0.100
492.600	36.896	0.100
492.700	40.499	0.100
492.800	45.543	0.100
492.900	44.788	0.100
493.000	34.100	0.100
493.100	38.534	0.100
493.200	34.269	0.100
493.300	39.864	0.100
493.400	42.715	0.100
493.500	47.906	0.100
493.600	43.987	0.100
493.700	42.046	0.100
493.800	30.630	0.100
493.900	47.470	0.100
494.000	36.784	0.100
494.100	41.830	0.100
494.200	47.185	0.100
494.300	51.529	0.100
494.400	27.456	0.100
494.500	49.955	0.100
494.600	51.095	0.100
494.700	52.217	0.100
494.800	60.225	0.100
494.900	36.719	0.100
495.000	43.610	0.100
495.100	41.117	0.100
495.200	60.925	0.100
495.300	37.237	0.100
495.400	33.135	0.100
495.500	36.433	0.100
495.600	40.016	0.100
495.700	57.914	0.100
495.800	45.642	0.100
495.900	49.200	0.100
496.000	36.400	0.100
496.100	42.402	0.100
496.200	55.727	0.100
496.300	45.907	0.100
496.400	61.598	0.100
496.500	51.611	0.100
496.600	61.199	0.100
496.700	62.468	0.100
496.800	47.749	0.100
496.900	45.101	0.100
497.000	47.239	0.100
497.100	38.740	0.100
497.200	66.453	0.100
497.300	38.805	0.100
497.400	34.295	0.100
497.500	59.326	0.100
497.600	57.119	0.100
497.700	49.376	0.100
497.800	59.859	0.100
497.900	60.639	0.100
498.000	48.226	0.100
498.100	55.525	0.100
498.200	61.740	0.100
498.300	45.984	0.100
498.400	42.696	0.100
498.500	56.286	0.100
498.600	54.094	0.100
498.700	73.010	0.100
498.800	52.804	0.100
498.900	62.666	0.100
499.000	41.174	0.100
499.100	54.184	0.100
499.200	53.233	0.100
499.300	66.618	0.100
499.400	47.306	0.100
499.500	65.821	0.100
499.600	41.069	0.100
499.700	46.404	0.100
499.800	46.337	0.100
499.900	43.433	0.100
500.000	55.418	0.100
500.100	55.990	0.100
500.200	54.842	0.100
500.300	46.645	0.100
500.400	53.002	0.100
500.500	56.534	0.100
500.600	46.482	0.100
500.700	54.732	0.100
500.800	60.946	0.100
500.900	38.791	0.100
501.000	49.057	0.100
501.100	49.823	0.100
501.200	52.593	0.100
501.300	56.148	0.100
501.400	63.173	0.100
501.500	49.081	0.100
501.600	55.011	0.100
501.700	52.916	0.100
501.800	44.651	0.100
501.900	72.077	0.100
502.000	48.047	0.100
502.100	64.361	0.100
502.200	49.509	0.100
502.300	61.171	0.100
502.400	50.424	0.100
502.500	48.321	0.100
502.600	56.887	0.100
502.700	45.140	0.100
502.800	46.627	0.100
502.900	69.245	0.100
503.000	61.182	0.100
503.100	48.842	0.100
503.200	60.483	0.100
503.300	55.732	0.100
503.400	58.147	0.100
503.500	51.856	0.100
503.600	49.868	0.100
503.700	58.082	0.100
503.800	41.290	0.100
503.900	45.143	0.100
504.000	67.070	0.100
504.100	56.473	0.100
504.200	49.271	0.100
504.300	57.533	0.100
504.400	68.370	0.100
504.500	75.679	0.100
504.600	27.564	0.100
504.700	58.243	0.100
504.800	50.626	0.100
504.900	53.685	0.100
505.000	61.393	0.100
505.100	47.093	0.100
505.200	71.593	0.100
505.300	62.013	0.100
505.400	52.173	0.100
505.500	63.734	0.100
505.600	46.036	0.100
505.700	61.582	0.100
505.800	68.326	0.100
505.900	60.768	0.100
506.000	53.995	0.100
506.100	48.934	0.100
506.200	66.579	0.100
506.300	63.472	0.100
506.400	54.361	0.100
506.500	55.446	0.100
506.600	64.887	0.100
506.700	44.558	0.100
506.800	71.329	0.100
506.900	65.093	0.100
507.000	50.000	0.100
507.100	56.574	0.100
507.200	48.552	0.100
507.300	57.568	0.100
507.400	47.296	0.100
507.500	56.536	0.100
507.600	51.188	0.100
507.700	68.792	0.100
507.800	62.747	0.100
507.900	59.146	0.100
508.000	55.552	0.100
508.100	69.402	0.100
508.200	56.466	0.100
508.300	50.697	0.100
508.400	57.945	0.100
508.500	74.086	0.100
508.600	58.545	0.100
508.700	53.240	0.100
508.800	62.403	0.100
508.900	53.402	0.100
509.000	62.806	0.100
509.100	56.309	0.100
509.200	53.733	0.100
509.300	62.910	0.100
509.400	69.800	0.100
509.500	57.272	0.100
509.600	57.950	0.100
509.700	61.200	0.100
509.800	59.635	0.100
509.900	57.326	0.100
510.000	47.300	0.100
510.100	56.645	0.100
510.200	68.015	0.100
510.300	73.629	0.100
510.400	53.937	0.100
510.500	61.640	0.100
510.600	72.865	0.100
510.700	66.857	0.100
510.800	59.042	0.100
510.900	60.621	0.100
511.000	45.557	0.100
511.100	61.195	0.100
511.200	70.198	0.100
511.300	72.909	0.099
511.400	75.372	0.100
511.500	67.998	0.100
511.600	52.609	0.100
511.700	56.438	0.099
511.800	74.308	0.100
511.900	73.994	0.100
512.000	60.609	0.100
512.100	54.776	0.100
512.200	69.344	0.100
512.300	76.061	0.099
512.400	59.621	0.100
512.500	57.936	0.100
512.600	72.707	0.100
512.700	67.499	0.100
512.800	67.359	0.100
512.900	65.798	0.100
513.000	60.913	0.100
513.100	67.820	0.100
513.200	72.019	0.099
513.300	61.220	0.099
513.400	63.328	0.099
513.500	73.117	0.099
513.600	74.966	0.099
513.700	75.740	0.099
513.800	57.071	0.100
513.900	82.292	0.099
514.000	54.518	0.099
514.100	69.133	0.099
514.200	69.628	0.099
514.300	62.551	0.099
514.400	70.916	0.099
514.500	75.711	0.099
514.600	63.625	0.099
514.700	46.506	0.099
514.800	84.326	0.099
514.900	59.190	0.099
515.000	64.681	0.099
515.100	72.871	0.099
515.200	67.867	0.100
515.300	47.240	0.100
515.400	81.134	0.099
515.500	72.449	0.099
515.600	64.737	0.100
515.700	70.151	0.100
515.800	67.937	0.099
515.900	76.789	0.099
516.000	77.396	0.100
516.100	70.049	0.100
516.200	79.150	0.100
516.300	74.890	0.099
516.400	74.163	0.100
516.500	72.008	0.100
516.600	84.873	0.100
516.700	53.761	0.100
516.800	65.580	0.099
516.900	73.994	0.100
517.000	57.528	0.100
517.100	74.207	0.099
517.200	69.619	0.099
517.300	78.295	0.100
517.400	64.354	0.100
517.500	78.655	0.100
517.600	65.080	0.100
517.700	81.953	0.100
517.800	59.823	0.099
517.900	72.897	0.100
518.000	59.950	0.099
518.100	72.695	0.100
518.200	72.520	0.100
518.300	63.218	0.100
518.400	65.368	0.099
518.500	64.213	0.100
518.600	62.866	0.100
518.700	69.714	0.100
518.800	82.268	0.100
518.900	61.399	0.100
519.000	59.287	0.100
519.100	60.494	0.100
519.200	67.549	0.100
519.300	77.504	0.100
519.400	56.406	0.100
519.500	62.327	0.100
519.600	74.840	0.099
519.700	71.074	0.099
519.800	61.941	0.100
519.900	72.968	0.100
520.000	70.145	0.100
520.100	84.948	0.099
520.200	61.437	0.100
520.300	77.093	0.100
520.400	68.185	0.100
520.500	71.266	0.099
520.600	76.616	0.100
520.700	71.841	0.100
520.800	65.267	0.100
520.900	61.723	0.100
521.000	74.758	0.100
521.100	66.088	0.100
521.200	71.631	0.100
521.300	82.929	0.100
521.400	71.406	0.100
521.500	63.284	0.100
521.600	66.044	0.100
521.700	89.837	0.100
521.800	78.237	0.100
521.900	72.401	0.100
522.000	77.453	0.100
522.100	64.497	0.100
522.200	65.643	0.099
522.300	70.902	0.100
522.400	61.596	0.100
522.500	78.131	0.099
522.600	67.091	0.100
522.700	74.365	0.099
522.800	68.950	0.100
522.900	82.785	0.100
523.000	67.006	0.100
523.100	66.366	0.100
523.200	70.371	0.100
523.300	81.120	0.100
523.400	66.681	0.100
523.500	71.542	0.100
523.600	92.585	0.100
523.700	72.755	0.099
523.800	81.724	0.099
523.900	65.705	0.100
524.000	73.203	0.100
524.100	74.185	0.100
524.200	64.284	0.100
524.300	77.987	0.100
524.400	60.054	0.100
524.500	81.785	0.099
524.600	74.013	0.099
524.700	65.267	0.100
524.800	60.470	0.099
524.900	83.551	0.100
525.000	72.437	0.099
525.100	65.930	0.100
525.200	98.061	0.100
525.300	56.580	0.099
525.400	79.643	0.099
525.500	58.332	0.099
525.600	74.291	0.099
525.700	79.600	0.099
525.800	71.043	0.099
525.900	71.254	0.100
526.000	59.159	0.100
526.100	75.104	0.099
526.200	73.891	0.099
526.300	69.185	0.100
526.400	85.334	0.099
526.500	75.326	0.100
526.600	74.810	0.099
526.700	73.955	0.100
526.800	71.679	0.100
526.900	66.714	0.100
527.000	60.810	0.099
527.100	73.623	0.100
527.200	82.832	0.100
527.300	70.679	0.100
527.400	63.681	0.099
527.500	71.241	0.100
527.600	86.691	0.100
527.700	66.532	0.100
527.800	82.876	0.100
527.900	59.811	0.100
528.000	67.344	0.100
528.100	88.756	0.100
528.200	67.136	0.100
528.300	72.441	0.100
528.400	80.542	0.100
528.500	78.697	0.100
528.600	67.771	0.100
528.700	68.549	0.099
528.800	69.621	0.100
528.900	69.982	0.100
529.000	62.998	0.100
529.100	70.004	0.100
529.200	75.964	0.100
529.300	75.366	0.100
529.400	73.678	0.100
529.500	44.269	0.100
529.600	87.147	0.100
529.700	66.870	0.099
529.800	81.585	0.100
529.900	82.871	0.100
530.000	52.320	0.100
530.100	65.592	0.100
530.200	82.037	0.100
530.300	84.340	0.100
530.400	82.645	0.100
530.500	74.335	0.100
530.600	65.879	0.100
530.700	53.677	0.100
530.800	75.381	0.099
530.900	69.111	0.100
531.000	89.002	0.100
531.100	64.466	0.100
531.200	65.142	0.099
531.300	76.892	0.099
531.400	70.221	0.100
531.500	60.617	0.100
531.600	70.355	0.100
531.700	77.858	0.100
531.800	78.357	0.100
531.900	58.466	0.100
532.000	73.720	0.100
532.100	78.019	0.100
532.200	76.104	0.100
532.300	78.188	0.099
532.400	67.143	0.100
532.500	69.336	0.100
532.600	64.653	0.100
532.700	65.014	0.100
532.800	63.021	0.100
532.900	77.705	0.100
533.000	75.523	0.100
533.100	78.390	0.100
533.200	75.155	0.100
533.300	67.271	0.099
533.400	60.315	0.100
533.500	83.656	0.100
533.600	75.794	0.100
533.700	79.812	0.100
533.800	78.202	0.100
533.900	68.891	0.100
534.000	66.737	0.100
534.100	56.735	0.100
534.200	59.973	0.100
534.300	82.370	0.100
534.400	75.260	0.100
534.500	71.144	0.100
534.600	78.189	0.100
534.700	68.833	0.100
534.800	82.938	0.100
534.900	73.715	0.100
535.000	57.151	0.100
535.100	53.442	0.099
535.200	67.254	0.099
535.300	66.943	0.100
535.400	64.639	0.100
535.500	62.983	0.100
535.600	77.327	0.100
535.700	68.951	0.100
535.800	67.458	0.100
535.900	86.468	0.100
536.000	74.945	0.100
536.100	60.100	0.100
536.200	72.975	0.099
536.300	67.163	0.100
536.400	47.151	0.100
536.500	47.200	0.099
536.600	82.275	0.100
536.700	66.064	0.099
536.800	74.834	0.099
536.900	80.829	0.099
537.000	42.262	0.099
537.100	64.156	0.100
537.200	67.680	0.100
537.300	91.257	0.100
537.400	77.196	0.100
537.500	61.923	0.099
537.600	59.645	0.100
537.700	66.561	0.100
537.800	62.237	0.099
537.900	66.409	0.100
538.000	67.658	0.100
538.100	74.412	0.100
538.200	69.503	0.100
538.300	74.273	0.100
538.400	76.510	0.099
538.500	75.870	0.099
538.600	69.205	0.099
538.700	75.591	0.099
538.800	61.391	0.100
538.900	68.601	0.100
539.000	73.208	0.100
539.100	70.798	0.099
539.200	66.179	0.100
539.300	65.422	0.100
539.400	54.418	0.100
539.500	70.359	0.099
539.600	72.948	0.100
539.700	47.860	0.100
539.800	64.199	0.099
539.900	75.143	0.099
540.000	77.702	0.100
540.100	60.507	0.099
540.200	66.320	0.099
540.300	51.317	0.100
540.400	57.755	0.100
540.500	41.381	0.100
540.600	36.161	0.100
540.700	52.354	0.100
540.800	18.470	0.100
540.900	26.377	0.099
541.000	15.528	0.100
541.100	-0.310	0.099
541.200	7.481	0.100
541.300	-3.288	0.100
541.400	-7.776	0.100
541.500	-13.345	0.100
541.600	2.581	0.100
541.700	-27.768	0.099
541.800	-29.453	0.100
541.900	-14.821	0.100
542.000	-38.889	0.099
542.100	-16.899	0.100
542.200	-33.302	0.099
542.300	-47.666	0.099
542.400	-32.005	0.100
542.500	-40.212	0.099
542.600	-45.428	0.100
542.700	-36.620	0.100
542.800	-44.517	0.100
542.900	-48.026	0.100
543.000	-39.512	0.100
543.100	-56.451	0.100
543.200	-51.158	0.100
543.300	-31.969	0.100
543.400	-28.810	0.100
543.500	-52.285	0.100
543.600	-48.302	0.100
543.700	-45.778	0.100
543.800	-53.862	0.099
543.900	-24.626	0.100
544.000	-51.904	0.100
544.100	-47.772	0.099
544.200	-49.611	0.099
544.300	-35.298	0.100
544.400	-56.709	0.099
544.500	-44.265	0.099
544.600	-43.221	0.099
544.700	-32.847	0.099
544.800	-49.158	0.100
544.900	-39.940	0.100
545.000	-45.117	0.099
545.100	-28.000	0.100
545.200	-46.914	0.099
545.300	-25.386	0.099
545.400	-33.902	0.099
545.500	-41.742	0.100
545.600	-32.176	0.100
545.700	-38.789	0.100
545.800	-17.877	0.100
545.900	-48.379	0.099
546.000	-38.584	0.099
546.100	-32.924	0.100
546.200	-23.618	0.100
546.300	-27.292	0.099
546.400	-38.390	0.100
546.500	-31.957	0.100
546.600	-48.750	0.100
546.700	-14.111	0.099
546.800	-42.128	0.099
546.900	-49.400	0.100
547.000	-34.413	0.100
547.100	-19.484	0.100
547.200	-29.119	0.100
547.300	-38.949	0.100
547.400	-26.649	0.099
547.500	-29.972	0.100
547.600	-41.509	0.100
547.700	-30.015	0.099
547.800	-32.100	0.100
547.900	-20.250	0.099
548.000	-34.626	0.100
548.100	-35.514	0.099
548.200	-29.514	0.100
548.300	-34.001	0.100
548.400	-57.946	0.100
548.500	-33.646	0.100
548.600	-34.956	0.100
548.700	-29.060	0.100
548.800	-31.089	0.100
548.900	-35.631	0.100
549.000	-39.249	0.099
549.100	-38.870	0.099
549.200	-18.209	0.100
549.300	-27.902	0.099
549.400	-36.267	0.100
549.500	-43.715	0.099
549.600	-30.280	0.099
549.700	-25.934	0.100
549.800	-29.780	0.099
549.900	-41.806	0.100
550.000	-46.701	0.100
550.100	-38.080	0.100
550.200	-27.130	0.100
550.300	-23.076	0.100
550.400	-48.446	0.100
550.500	-21.696	0.100
550.600	-35.070	0.100
550.700	-36.202	0.100
550.800	-30.905	0.100
550.900	-35.670	0.099
551.000	-51.160	0.100
551.100	-45.711	0.099
551.200	-44.199	0.099
551.300	-34.647	0.100
551.400	-37.849	0.099
551.500	-33.554	0.100
551.600	-47.765	0.100
551.700	-27.525	0.099
551.800	-35.176	0.099
551.900	-41.227	0.100
552.000	-38.539	0.099
552.100	-44.673	0.100
552.200	-31.404	0.100
552.300	-36.213	0.100
552.400	-38.957	0.100
552.500	-32.856	0.099
552.600	-32.651	0.100
552.700	-22.781	0.100
552.800	-32.329	0.100
552.900	-46.905	0.099
553.000	-39.104	0.099
553.100	-29.013	0.100
553.200	-39.681	0.100
553.300	-44.905	0.099
553.400	-41.487	0.100
553.500	-37.340	0.100
553.600	-28.142	0.099
553.700	-42.052	0.100
553.800	-40.284	0.100
553.900	-39.670	0.100
554.000	-38.181	0.100
554.100	-17.468	0.100
554.200	-35.507	0.100
554.300	-41.018	0.100
554.400	-47.303	0.099
554.500	-32.752	0.100
554.600	-36.652	0.099
554.700	-28.444	0.100
554.800	-45.811	0.100
554.900	-40.462	0.100
555.000	-31.744	0.100
555.100	-36.462	0.100
555.200	-24.306	0.099
555.300	-41.849	0.099
555.400	-46.795	0.099
555.500	-40.756	0.099
555.600	-34.174	0.099
555.700	-43.569	0.100
555.800	-41.507	0.100
555.900	-42.618	0.100
556.000	-52.144	0.099
556.100	-32.022	0.100
556.200	-43.742	0.100
556.300	-35.307	0.100
556.400	-39.249	0.100
556.500	-31.749	0.099
556.600	-54.165	0.099
556.700	-31.961	0.100
556.800	-38.243	0.100
556.900	-35.363	0.100
557.000	-29.731	0.100
557.100	-36.364	0.100
557.200	-42.277	0.099
557.300	-32.744	0.099
557.400	-43.920	0.100
557.500	-33.049	0.100
557.600	-47.617	0.099
557.700	-46.153	0.099
557.800	-37.408	0.100
557.900	-31.589	0.100
558.000	-34.528	0.100
558.100	-37.635	0.100
558.200	-35.393	0.100
558.300	-39.954	0.099
558.400	-41.395	0.099
558.500	-38.658	0.099
558.600	-41.457	0.100
558.700	-28.828	0.099
558.800	-25.757	0.100
558.900	-50.814	0.099
559.000	-24.479	0.100
559.100	-38.072	0.099
559.200	-43.141	0.099
559.300	-32.376	0.099
559.400	-36.557	0.100
559.500	-28.244	0.099
559.600	-33.643	0.099
559.700	-32.334	0.100
559.800	-39.392	0.100
559.900	-36.386	0.100
560.000	-38.905	0.099
560.100	-36.260	0.099
560.200	-33.472	0.099
560.300	-41.247	0.099
560.400	-39.983	0.099
560.500	-30.565	0.099
560.600	-16.279	0.099
560.700	-52.994	0.099
560.800	-32.144	0.100
560.900	-38.806	0.099
561.000	-37.851	0.100
561.100	-25.850	0.099
561.200	-41.786	0.100
561.300	-20.344	0.100
561.400	-41.297	0.100
561.500	-42.566	0.100
561.600	-32.764	0.100
561.700	-34.466	0.100
561.800	-31.161	0.099
561.900	-29.161	0.099
562.000	-34.147	0.099
562.100	-33.540	0.099
562.200	-43.315	0.099
562.300	-32.010	0.099
562.400	-30.627	0.100
562.500	-33.480	0.099
562.600	-31.920	0.100
562.700	-62.410	0.100
562.800	-35.506	0.100
562.900	-45.988	0.099
563.000	-41.535	0.099
563.100	-25.216	0.100
563.200	-40.768	0.100
563.300	-21.339	0.100
563.400	-35.000	0.100
563.500	-33.496	0.100
563.600	-41.603	0.099
563.700	-38.640	0.099
563.800	-29.008	0.099
563.900	-38.266	0.099
564.000	-38.306	0.099
564.100	-29.564	0.100
564.200	-40.754	0.100
564.300	-42.144	0.099
564.400	-45.759	0.099
564.500	-28.044	0.100
564.600	-27.019	0.099
564.700	-28.734	0.099
564.800	-20.141	0.100
564.900	-29.195	0.100
565.000	-24.855	0.100
565.100	-41.037	0.100
565.200	-36.599	0.100
565.300	-45.789	0.100
565.400	-42.325	0.100
565.500	-29.271	0.100
565.600	-40.000	0.100
565.700	-43.795	0.100
565.800	-29.235	0.100
565.900	-35.315	0.100
566.000	-42.027	0.100
566.100	-13.674	0.099
566.200	-40.998	0.100
566.300	-46.685	0.100
566.400	-32.674	0.100
566.500	-30.610	0.099
566.600	-45.701	0.100
566.700	-36.078	0.100
566.800	-31.247	0.100
566.900	-45.267	0.100
567.000	-37.672	0.100
567.100	-43.403	0.099
567.200	-36.030	0.100
567.300	-45.201	0.100
567.400	-30.403	0.100
567.500	-29.177	0.100
567.600	-43.223	0.100
567.700	-29.420	0.099
567.800	-29.378	0.099
567.900	-38.004	0.100
568.000	-42.528	0.099
568.100	-30.820	0.099
568.200	-38.614	0.099
568.300	-21.378	0.099
568.400	-39.140	0.099
568.500	-23.519	0.099
568.600	-31.169	0.100
568.700	-36.185	0.100
568.800	-40.086	0.099
568.900	-28.055	0.099
569.000	-38.799	0.099
569.100	-41.320	0.099
569.200	-32.289	0.099
569.300	-40.004	0.099
569.400	-30.250	0.100
569.500	-45.946	0.099
569.600	-25.519	0.100
569.700	-27.922	0.100
569.800	-43.105	0.099
569.900	-32.045	0.100
570.000	-32.568	0.100
570.100	-38.647	0.100
570.200	-26.226	0.099
570.300	-44.129	0.099
570.400	-47.904	0.099
570.500	-20.262	0.100
570.600	-30.597	0.100
570.700	-49.920	0.099
570.800	-30.121	0.100
570.900	-26.694	0.100
571.000	-31.219	0.100
571.100	-39.388	0.100
571.200	-42.291	0.099
571.300	-35.434	0.100
571.400	-44.545	0.099
571.500	-38.595	0.099
571.600	-34.567	0.099
571.700	-23.187	0.100
571.800	-35.101	0.099
571.900	-44.571	0.099
572.000	-32.403	0.099
572.100	-14.397	0.100
572.200	-32.973	0.099
572.300	-48.463	0.100
572.400	-33.587	0.100
572.500	-34.068	0.100
572.600	-29.077	0.100
572.700	-40.137	0.100
572.800	-22.439	0.100
572.900	-37.234	0.100
573.000	-42.517	0.099
573.100	-14.413	0.100
573.200	-44.974	0.099
573.300	-31.547	0.099
573.400	-40.558	0.099
573.500	-38.732	0.099
573.600	-37.536	0.099
573.700	-18.411	0.099
573.800	-38.044	0.100
573.900	-44.147	0.099
574.000	-29.623	0.100
574.100	-38.868	0.100
574.200	-16.373	0.100
574.300	-22.612	0.100
574.400	-33.625	0.100
574.500	-38.586	0.100
574.600	-49.874	0.100
574.700	-33.013	0.100
574.800	-34.994	0.100
574.900	-17.089	0.099
575.000	-36.139	0.099
575.100	-38.869	0.100
575.200	-27.771	0.100
575.300	-24.110	0.099
575.400	-31.077	0.100
575.500	-49.541	0.099
575.600	-19.820	0.100
575.700	-28.862	0.099
575.800	-31.116	0.099
575.900	-32.006	0.100
576.000	-36.488	0.099
576.100	-40.387	0.099
576.200	-28.470	0.100
576.300	-36.983	0.100
576.400	-30.947	0.100
576.500	-26.621	0.100
576.600	-35.322	0.100
576.700	-35.158	0.099
576.800	-26.398	0.099
576.900	-40.982	0.099
577.000	-25.931	0.099
577.100	-34.399	0.099
577.200	-26.498	0.099
577.300	-33.084	0.099
577.400	-33.372	0.099
577.500	-42.474	0.099
577.600	-40.086	0.099
577.700	-15.628	0.099
577.800	-35.332	0.099
577.900	-20.567	0.100
578.000	-32.393	0.100
578.100	-38.824	0.100
578.200	-36.057	0.100
578.300	-40.695	0.100
578.400	-43.596	0.099
578.500	-28.132	0.099
578.600	-26.119	0.099
578.700	-27.521	0.100
578.800	-38.464	0.099
578.900	-41.311	0.099
579.000	-39.801	0.099
579.100	-22.310	0.100
579.200	-22.887	0.099
579.300	-17.307	0.099
579.400	-47.992	0.099
579.500	-37.097	0.099
579.600	-29.119	0.099
579.700	-36.590	0.100
579.800	-29.646	0.099
579.900	-25.129	0.099
580.000	-27.398	0.099
580.100	-41.581	0.099
580.200	-36.519	0.100
580.300	-20.970	0.099
580.400	-28.449	0.100
580.500	-38.815	0.100
580.600	-32.767	0.100
580.700	-18.009	0.099
580.800	-29.724	0.100
580.900	-29.864	0.099
581.000	-57.019	0.099
581.100	-36.318	0.099
581.200	-27.681	0.100
581.300	-32.695	0.099
581.400	-14.538	0.099
581.500	-16.267	0.100
581.600	-26.522	0.100
581.700	-45.483	0.099
581.800	-28.459	0.099
581.900	-33.035	0.099
582.000	-26.076	0.100
582.100	-40.183	0.099
582.200	-34.571	0.100
582.300	-29.399	0.099
582.400	-35.198	0.099
582.500	-32.822	0.100
582.600	-32.676	0.100
582.700	-50.772	0.099
582.800	-33.886	0.099
582.900	-21.720	0.099
583.000	-33.030	0.100
583.100	-47.654	0.099
583.200	-45.928	0.100
583.300	-23.133	0.100
583.400	-29.884	0.099
583.500	-37.453	0.100
583.600	-26.229	0.100
583.700	-36.045	0.100
583.800	-37.372	0.099
583.900	-30.486	0.099
584.000	-34.611	0.099
584.100	-38.914	0.100
584.200	-20.398	0.100
584.300	-46.340	0.099
584.400	-27.887	0.099
584.500	-24.878	0.099
584.600	-41.668	0.100
584.700	-44.157	0.099
584.800	-31.255	0.099
584.900	-31.038	0.099
585.000	-21.726	0.100
585.100	-51.772	0.099
585.200	-30.012	0.099
585.300	-16.958	0.100
585.400	-10.764	0.100
585.500	-33.960	0.099
585.600	-23.773	0.099
585.700	-28.979	0.099
585.800	-38.967	0.099
585.900	-36.074	0.100
586.000	-32.635	0.100
586.100	-30.322	0.100
586.200	-27.787	0.099
586.300	-45.670	0.099
586.400	-26.220	0.099
586.500	-25.607	0.099
586.600	-27.544	0.099
586.700	-15.058	0.100
586.800	-42.404	0.099
586.900	-37.398	0.099
587.000	-30.356	0.099
587.100	-30.500	0.099
587.200	-39.497	0.100
587.300	-40.468	0.099
587.400	-34.909	0.099
587.500	-34.338	0.099
587.600	-38.530	0.100
587.700	-39.502	0.099
587.800	-18.904	0.100
587.900	-31.253	0.099
588.000	-33.545	0.099
588.100	-34.996	0.099
588.200	-23.701	0.099
588.300	-19.702	0.100
588.400	-38.661	0.099
588.500	-24.219	0.099
588.600	-26.075	0.100
588.700	-36.170	0.099
588.800	-25.426	0.100
588.900	-17.657	0.099
589.000	-36.374	0.099
589.100	-29.486	0.100
589.200	-26.507	0.099
589.300	-36.176	0.099
589.400	-36.091	0.099
589.500	-32.531	0.099
589.600	-28.070	0.099
589.700	-34.844	0.099
589.800	-40.377	0.099
589.900	-28.485	0.099
590.000	-6.701	0.099
590.100	-23.493	0.099
590.200	-29.869	0.099
590.300	-24.200	0.099
590.400	-38.329	0.099
590.500	-26.261	0.099
590.600	-51.795	0.099
590.700	-38.958	0.099
590.800	-33.649	0.099
590.900	-26.565	0.100
591.000	-29.486	0.100
591.100	-24.390	0.100
591.200	-22.924	0.100
591.300	-34.351	0.099
591.400	-31.982	0.099
591.500	-22.882	0.100
591.600	-54.615	0.099
591.700	-33.290	0.099
591.800	-8.690	0.099
591.900	-27.256	0.099
592.000	-37.780	0.099
592.100	-41.399	0.099
592.200	-39.344	0.099
592.300	-10.512	0.099
592.400	-34.946	0.099
592.500	-41.579	0.099
592.600	-42.338	0.099
592.700	-31.934	0.099
592.800	-22.342	0.099
592.900	-20.989	0.100
593.000	-42.072	0.099
593.100	-26.757	0.099
593.200	-16.104	0.100
593.300	-28.987	0.099
593.400	-26.468	0.099
593.500	-39.804	0.099
593.600	-18.871	0.099
593.700	-34.008	0.099
593.800	-39.745	0.099
593.900	-27.925	0.099
594.000	-27.121	0.099
594.100	-35.465	0.099
594.200	-36.958	0.099
594.300	-19.601	0.099
594.400	-47.418	0.099
594.500	-31.205	0.099
594.600	-43.107	0.099
594.700	-22.754	0.099
594.800	-33.672	0.100
594.900	-23.372	0.099
595.000	-40.656	0.099
595.100	-37.751	0.099
595.200	-33.856	0.099
595.300	-25.937	0.099
595.400	-26.268	0.099
595.500	-39.787	0.099
595.600	-36.088	0.099
595.700	-27.366	0.099
595.800	-31.462	0.099
595.900	-18.774	0.099
596.000	-36.786	0.099
596.100	-28.117	0.100
596.200	-35.214	0.099
596.300	-17.206	0.100
596.400	-31.346	0.099
596.500	-22.377	0.099
596.600	-35.101	0.099
596.700	-34.785	0.099
596.800	-20.017	0.099
596.900	-36.444	0.099
597.000	-26.551	0.099
597.100	-46.781	0.099
597.200	-23.120	0.099
597.300	-19.564	0.099
597.400	-31.133	0.099
597.500	-20.955	0.099
597.600	-35.624	0.100
597.700	-29.096	0.099
597.800	-36.610	0.099
597.900	-29.108	0.099
598.000	-38.748	0.099
598.100	-22.323	0.099
598.200	-15.575	0.099
598.300	-23.911	0.099
598.400	-28.265	0.099
598.500	-14.354	0.099
598.600	-35.707	0.099
598.700	-25.122	0.100
598.800	-24.175	0.099
598.900	-31.704	0.099
599.000	-25.171	0.100
599.100	-38.831	0.099
599.200	-37.486	0.099
599.300	-31.896	0.100
599.400	-20.460	0.100
599.500	-25.674	0.100
599.600	-21.717	0.099
599.700	-20.622	0.100
599.800	-31.385	0.100
599.900	-40.414	0.099
600.000	-28.469	0.099
600.100	-25.890	0.099
600.200	-22.513	0.099
600.300	-46.192	0.099
600.400	-26.747	0.099
600.500	-25.920	0.099
600.600	-21.016	0.099
600.700	-20.731	0.099
600.800	-20.056	0.099
600.900	-25.918	0.099
601.000	-31.203	0.100
601.100	-16.739	0.099
601.200	-12.563	0.100
601.300	-30.030	0.099
601.400	-28.395	0.100
601.500	-32.322	0.100
601.600	-23.949	0.100
601.700	-31.354	0.099
601.800	-24.323	0.099
601.900	-25.973	0.099
602.000	-29.275	0.099
602.100	-19.605	0.100
602.200	-31.311	0.099
602.300	-27.831	0.099
602.400	-37.054	0.099
602.500	-15.998	0.099
602.600	-26.095	0.099
602.700	-32.846	0.100
602.800	-18.568	0.099
602.900	-35.962	0.100
603.000	-16.687	0.100
603.100	-10.305	0.099
603.200	-32.980	0.099
603.300	-30.414	0.099
603.400	-27.292	0.099
603.500	-32.900	0.100
603.600	-45.907	0.099
603.700	-23.502	0.099
603.800	-19.467	0.099
603.900	-24.774	0.099
604.000	-22.008	0.099
604.100	-33.096	0.099
604.200	-32.068	0.099
604.300	-22.466	0.100
604.400	-32.081	0.099
604.500	-27.478	0.099
604.600	-30.721	0.099
604.700	-19.745	0.100
604.800	-44.214	0.099
604.900	-21.977	0.099
605.000	-22.700	0.099
605.100	-21.953	0.099
605.200	-30.262	0.099
605.300	-32.241	0.099
605.400	-26.981	0.099
605.500	-32.215	0.100
605.600	-20.739	0.099
605.700	-28.090	0.099
605.800	-26.610	0.099
605.900	-25.420	0.099
606.000	-33.718	0.099
606.100	-36.537	0.099
606.200	-25.254	0.099
606.300	-40.850	0.099
606.400	-6.933	0.100
606.500	-44.533	0.099
606.600	-23.541	0.099
606.700	-21.813	0.099
606.800	-22.905	0.099
606.900	-46.583	0.099
607.000	-43.674	0.099
607.100	-23.269	0.099
607.200	-22.401	0.100
607.300	-39.059	0.100
607.400	-32.647	0.099
607.500	-22.396	0.099
607.600	-34.437	0.100
607.700	-46.623	0.099
607.800	-25.831	0.099
607.900	-16.276	0.099
608.000	-28.363	0.099
608.100	-23.351	0.099
608.200	-29.518	0.099
608.300	-36.511	0.099
608.400	-30.160	0.099
608.500	-27.473	0.099
608.600	-24.848	0.099
608.700	-24.683	0.099
608.800	-24.129	0.099
608.900	-12.384	0.099
609.000	-20.473	0.099
609.100	-41.767	0.099
609.200	-31.699	0.099
609.300	-32.856	0.099
609.400	-23.504	0.099
609.500	-35.813	0.100
609.600	-27.266	0.099
609.700	-35.875	0.099
609.800	-27.268	0.099
609.900	-23.372	0.099
610.000	-8.203	0.100
610.100	-24.386	0.099
610.200	-29.763	0.099
610.300	-33.193	0.099
610.400	-30.976	0.099
610.500	-24.464	0.099
610.600	-22.113	0.099
610.700	-30.689	0.099
610.800	-27.899	0.099
610.900	-33.984	0.099
611.000	-28.165	0.100
611.100	-19.001	0.099
611.200	-44.485	0.099
611.300	-34.841	0.099
611.400	-20.963	0.099
611.500	-22.693	0.099
611.600	-23.275	0.100
611.700	-28.120	0.099
611.800	-34.391	0.099
611.900	-38.963	0.099
612.000	-17.023	0.099
612.100	-25.591	0.099
612.200	-43.969	0.100
612.300	-38.242	0.099
612.400	-35.068	0.099
612.500	-6.754	0.100
612.600	-25.952	0.099
612.700	-28.961	0.099
612.800	-37.879	0.100
612.900	-27.597	0.099
613.000	-25.499	0.099
613.100	-8.589	0.100
613.200	-8.616	0.099
613.300	-30.502	0.099
613.400	-45.145	0.099
613.500	-27.011	0.099
613.600	-41.064	0.099
613.700	-26.425	0.099
613.800	-21.882	0.099
613.900	-36.546	0.100
614.000	-18.755	0.099
614.100	-13.598	0.100
614.200	-34.253	0.099
614.300	-19.099	0.099
614.400	-41.674	0.100
614.500	-30.761	0.099
614.600	-16.249	0.099
614.700	-26.388	0.099
614.800	-37.827	0.099
614.900	-38.805	0.099
615.000	-27.360	0.099
615.100	-31.136	0.099
615.200	-17.877	0.099
615.300	-31.282	0.100
615.400	-37.632	0.100
615.500	-24.228	0.099
615.600	-25.568	0.099
615.700	-21.356	0.099
615.800	-30.144	0.099
615.900	-20.905	0.099
616.000	-48.787	0.099
616.100	-25.531	0.099
616.200	-14.887	0.099
616.300	-19.052	0.099
616.400	-18.472	0.099
616.500	-27.954	0.099
616.600	-27.418	0.099
616.700	-29.073	0.099
616.800	-19.513	0.099
616.900	-19.692	0.099
617.000	-32.733	0.099
617.100	-33.008	0.099
617.200	-33.517	0.099
617.300	-20.929	0.099
617.400	-44.930	0.099
617.500	2.962	0.099
617.600	-27.613	0.099
617.700	-30.992	0.100
617.800	-30.522	0.099
617.900	-27.501	0.099
618.000	-21.402	0.099
618.100	-36.209	0.099
618.200	-40.360	0.099
618.300	-22.696	0.099
618.400	-32.059	0.099
618.500	-24.687	0.099
618.600	-30.314	0.099
618.700	-21.422	0.099
618.800	-17.799	0.099
618.900	-33.159	0.099
619.000	-13.933	0.099
619.100	-31.171	0.099
619.200	-31.842	0.099
619.300	-21.580	0.099
619.400	-26.183	0.099
619.500	-34.321	0.099
619.600	-28.480	0.099
619.700	-11.113	0.099
619.800	-31.642	0.099
619.900	-30.663	0.099
620.000	-33.362	0.099
620.100	-19.770	0.099
620.200	-36.742	0.100
620.300	-25.181	0.100
620.400	-23.348	0.099
620.500	-16.321	0.099
620.600	-26.180	0.099
620.700	-26.643	0.099
620.800	-20.611	0.099
620.900	-32.070	0.099
621.000	-26.563	0.099
621.100	-32.195	0.099
621.200	-18.183	0.100
621.300	-36.079	0.100
621.400	-20.884	0.099
621.500	-28.884	0.099
621.600	-23.306	0.099
621.700	-35.103	0.099
621.800	-23.857	0.100
621.900	-32.460	0.099
622.000	-30.667	0.099
622.100	-13.090	0.100
622.200	-27.498	0.099
622.300	-25.250	0.099
622.400	-25.842	0.099
622.500	-28.618	0.099
622.600	-20.514	0.100
622.700	-9.135	0.099
622.800	-30.960	0.099
622.900	-32.407	0.100
623.000	-26.383	0.099
623.100	-31.740	0.099
623.200	-22.964	0.099
623.300	-34.080	0.099
623.400	-23.209	0.099
623.500	-14.211	0.099
623.600	-32.833	0.099
623.700	-23.538	0.099
623.800	-24.260	0.099
623.900	-38.081	0.099
624.000	-22.024	0.099
624.100	-25.022	0.099
624.200	-16.158	0.099
624.300	-28.221	0.099
624.400	-17.387	0.099
624.500	-34.149	0.099
624.600	-34.767	0.099
624.700	-22.087	0.100
624.800	-25.385	0.099
624.900	-23.638	0.099
625.000	-20.771	0.100
625.100	-26.373	0.099
625.200	-31.667	0.099
625.300	-24.503	0.100
625.400	-14.362	0.099
625.500	-27.060	0.099
625.600	-28.522	0.099
625.700	-33.107	0.099
625.800	-15.343	0.099
625.900	-36.282	0.099
626.000	-22.334	0.099
626.100	-32.593	0.099
626.200	-31.164	0.099
626.300	-33.055	0.100
626.400	-11.459	0.099
626.500	-28.923	0.099
626.600	-25.693	0.099
626.700	-21.152	0.099
626.800	-36.937	0.099
626.900	-17.861	0.099
627.000	-25.455	0.100
627.100	-11.485	0.100
627.200	-30.007	0.099
627.300	-23.993	0.099
627.400	-19.298	0.100
627.500	-30.542	0.099
627.600	-27.241	0.099
627.700	-31.517	0.099
627.800	-20.743	0.099
627.900	-39.777	0.099
628.000	-48.125	0.099
628.100	-9.030	0.099
628.200	-30.736	0.099
628.300	-19.934	0.099
628.400	-24.128	0.099
628.500	-34.723	0.100
628.600	-30.587	0.099
628.700	-29.746	0.100
628.800	-23.117	0.099
628.900	-23.077	0.099
629.000	-13.657	0.099
629.100	-40.366	0.100
629.200	-17.061	0.100
629.300	-16.053	0.100
629.400	-34.752	0.100
629.500	-14.963	0.100
629.600	-18.854	0.099
629.700	-38.781	0.099
629.800	-17.746	0.099
629.900	-31.255	0.099
630.000	-19.688	0.099
630.100	-6.493	0.099
630.200	2.696	0.099
630.300	-14.256	0.099
630.400	-22.174	0.100
630.500	7.280	0.100
630.600	8.080	0.099
630.700	15.025	0.100
630.800	9.691	0.099
630.900	18.098	0.099
631.000	23.755	0.099
631.100	30.033	0.100
631.200	32.758	0.100
631.300	26.817	0.100
631.400	26.468	0.100
631.500	27.339	0.099
631.600	14.135	0.099
631.700	24.592	0.099
631.800	33.693	0.100
631.900	45.220	0.099
632.000	29.880	0.099
632.100	25.307	0.100
632.200	2.588	0.100
632.300	19.788	0.099
632.400	18.859	0.100
632.500	24.240	0.099
632.600	26.038	0.099
632.700	10.363	0.099
632.800	15.469	0.100
632.900	17.223	0.099
633.000	14.681	0.099
633.100	8.016	0.099
633.200	15.798	0.099
633.300	30.948	0.100
633.400	0.292	0.100
633.500	-3.254	0.099
633.600	11.198	0.100
633.700	26.043	0.100
633.800	10.528	0.100
633.900	11.668	0.100
634.000	23.308	0.099
634.100	29.989	0.100
634.200	14.905	0.099
634.300	11.506	0.100
634.400	7.357	0.100
634.500	-0.564	0.100
634.600	24.845	0.099
634.700	17.934	0.100
634.800	10.975	0.099
634.900	25.365	0.099
635.000	13.491	0.099
635.100	6.035	0.100
635.200	22.770	0.100
635.300	13.339	0.099
635.400	16.935	0.099
635.500	14.455	0.100
635.600	16.206	0.100
635.700	17.884	0.100
635.800	35.826	0.100
635.900	19.436	0.100
636.000	19.981	0.100
636.100	10.834	0.100
636.200	9.102	0.100
636.300	29.918	0.100
636.400	19.313	0.099
636.500	41.251	0.100
636.600	27.345	0.100
636.700	8.325	0.100
636.800	18.050	0.099
636.900	14.884	0.099
637.000	20.986	0.099
637.100	25.257	0.100
637.200	15.981	0.099
637.300	38.340	0.100
637.400	28.227	0.100
637.500	25.014	0.100
637.600	19.697	0.100
637.700	40.538	0.100
637.800	33.039	0.100
637.900	30.794	0.100
638.000	22.310	0.100
638.100	24.838	0.099
638.200	22.401	0.100
638.300	24.343	0.100
638.400	27.314	0.099
638.500	42.480	0.100
638.600	37.580	0.100
638.700	40.673	0.100
638.800	29.029	0.100
638.900	26.220	0.099
639.000	42.266	0.100
639.100	32.890	0.099
639.200	36.944	0.100
639.300	20.423	0.100
639.400	32.618	0.099
639.500	34.790	0.100
639.600	44.094	0.100
639.700	40.882	0.100
639.800	24.932	0.099
639.900	20.659	0.099
640.000	41.597	0.099
640.100	33.284	0.099
640.200	50.493	0.100
640.300	41.355	0.100
640.400	44.969	0.100
640.500	32.336	0.100
640.600	17.464	0.099
640.700	22.247	0.100
640.800	24.635	0.099
640.900	35.003	0.099
641.000	41.652	0.100
641.100	37.503	0.099
641.200	32.302	0.099
641.300	35.495	0.099
641.400	63.808	0.099
641.500	45.327	0.100
641.600	33.505	0.099
641.700	33.989	0.099
641.800	39.396	0.099
641.900	52.516	0.099
642.000	44.814	0.100
642.100	50.480	0.099
642.200	38.062	0.100
642.300	35.817	0.100
642.400	40.217	0.099
642.500	47.601	0.099
642.600	48.328	0.099
642.700	32.248	0.100
642.800	19.485	0.100
642.900	51.501	0.099
643.000	46.308	0.099
643.100	48.276	0.099
643.200	47.796	0.099
643.300	34.501	0.100
643.400	51.330	0.100
643.500	41.424	0.099
643.600	60.333	0.100
643.700	53.404	0.099
643.800	45.324	0.099
643.900	35.706	0.100
644.000	46.270	0.100
644.100	28.234	0.099
644.200	40.811	0.100
644.300	61.481	0.099
644.400	52.559	0.099
644.500	45.137	0.099
644.600	47.345	0.099
644.700	44.865	0.099
644.800	47.644	0.100
644.900	50.187	0.100
645.000	40.245	0.099
645.100	38.857	0.100
645.200	44.274	0.100
645.300	50.117	0.100
645.400	42.567	0.099
645.500	43.885	0.100
645.600	57.558	0.100
645.700	47.251	0.100
645.800	42.977	0.099
645.900	26.370	0.099
646.000	49.848	0.099
646.100	51.704	0.099
646.200	40.145	0.099
646.300	53.584	0.099
646.400	59.464	0.100
646.500	58.599	0.099
646.600	39.756	0.099
646.700	37.626	0.099
646.800	48.269	0.099
646.900	52.941	0.100
647.000	51.507	0.099
647.100	63.296	0.099
647.200	60.435	0.100
647.300	38.161	0.099
647.400	47.664	0.099
647.500	73.893	0.100
647.600	52.395	0.100
647.700	40.027	0.099
647.800	60.600	0.099
647.900	40.037	0.100
648.000	44.814	0.100
648.100	51.343	0.100
648.200	49.351	0.100
648.300	32.139	0.099
648.400	69.233	0.100
648.500	53.309	0.099
648.600	55.271	0.099
648.700	48.644	0.100
648.800	24.464	0.099
648.900	48.930	0.099
649.000	45.928	0.099
649.100	57.456	0.099
649.200	69.541	0.099
649.300	46.237	0.099
649.400	60.274	0.100
649.500	40.044	0.099
649.600	47.251	0.099
649.700	64.366	0.099
649.800	65.761	0.100
649.900	65.008	0.099
650.000	59.090	0.100
650.100	40.774	0.100
650.200	32.618	0.099
650.300	58.258	0.100
650.400	52.761	0.100
650.500	40.414	0.100
650.600	67.269	0.099
650.700	63.355	0.100
650.800	46.820	0.099
650.900	55.301	0.099
651.000	47.096	0.099
651.100	53.944	0.099
651.200	39.220	0.099
651.300	56.390	0.099
651.400	52.564	0.099
651.500	53.179	0.099
651.600	47.024	0.099
651.700	57.504	0.100
651.800	40.693	0.100
651.900	61.073	0.099
652.000	61.109	0.100
652.100	46.656	0.099
652.200	53.802	0.099
652.300	54.813	0.100
652.400	68.782	0.099
652.500	54.461	0.099
652.600	53.586	0.100
652.700	58.728	0.100
652.800	44.650	0.100
652.900	63.822	0.099
653.000	42.883	0.100
653.100	60.413	0.100
653.200	65.371	0.100
653.300	58.738	0.099
653.400	53.002	0.099
653.500	46.494	0.099
653.600	51.685	0.100
653.700	49.997	0.100
653.800	60.284	0.100
653.900	49.828	0.100
654.000	62.017	0.099
654.100	58.074	0.099
654.200	60.416	0.100
654.300	63.210	0.100
654.400	56.810	0.100
654.500	52.176	0.099
654.600	54.937	0.100
654.700	50.686	0.099
654.800	43.917	0.100
654.900	49.337	0.100
655.000	50.188	0.100
655.100	54.429	0.100
655.200	60.761	0.100
655.300	54.964	0.100
655.400	65.234	0.100
655.500	59.443	0.100
655.600	43.583	0.100
655.700	55.580	0.100
655.800	49.158	0.100
655.900	49.089	0.100
656.000	66.692	0.100
656.100	61.639	0.100
656.200	51.078	0.100
656.300	60.806	0.100
656.400	57.358	0.100
656.500	58.519	0.100
656.600	49.185	0.099
656.700	65.914	0.099
656.800	52.760	0.100
656.900	54.181	0.100
657.000	49.212	0.100
657.100	60.234	0.099
657.200	49.912	0.099
657.300	68.974	0.099
657.400	52.060	0.100
657.500	55.907	0.100
657.600	46.684	0.100
657.700	66.319	0.100
657.800	60.358	0.099
657.900	29.964	0.100
658.000	57.247	0.100
658.100	35.123	0.100
658.200	70.474	0.099
658.300	63.846	0.100
658.400	59.485	0.100
658.500	62.877	0.100
658.600	58.935	0.100
658.700	66.655	0.099
658.800	50.819	0.099
658.900	65.972	0.100
659.000	65.864	0.100
659.100	41.851	0.100
659.200	77.594	0.100
659.300	65.964	0.100
659.400	60.362	0.100
659.500	67.073	0.100
659.600	46.830	0.099
659.700	65.380	0.100
659.800	58.309	0.100
659.900	58.783	0.099
660.000	61.467	0.100
660.100	76.774	0.100
660.200	62.204	0.100
660.300	50.910	0.100
660.400	51.115	0.100
660.500	67.099	0.100
660.600	64.586	0.099
660.700	55.479	0.099
660.800	60.515	0.099
660.900	74.286	0.100
661.000	56.621	0.099
661.100	70.824	0.100
661.200	43.374	0.099
661.300	68.365	0.099
661.400	65.720	0.099
661.500	67.083	0.100
661.600	62.466	0.100
661.700	62.689	0.099
661.800	65.983	0.100
661.900	61.060	0.099
662.000	68.116	0.100
662.100	57.772	0.099
662.200	69.784	0.099
662.300	64.133	0.100
662.400	79.123	0.100
662.500	63.786	0.100
662.600	43.367	0.100
662.700	60.132	0.100
662.800	64.256	0.099
662.900	64.537	0.100
663.000	49.805	0.099
663.100	57.266	0.099
663.200	57.145	0.100
663.300	71.592	0.099
663.400	62.057	0.099
663.500	73.377	0.100
663.600	49.958	0.100
663.700	54.367	0.099
663.800	69.633	0.099
663.900	74.680	0.100
664.000	82.744	0.100
664.100	67.707	0.100
664.200	82.825	0.100
664.300	68.929	0.099
664.400	64.618	0.100
664.500	69.938	0.100
664.600	53.869	0.099
664.700	56.819	0.100
664.800	64.666	0.100
664.900	70.162	0.100
665.000	65.949	0.099
665.100	64.890	0.099
665.200	84.953	0.099
665.300	54.507	0.099
665.400	64.786	0.100
665.500	62.638	0.100
665.600	68.735	0.100
665.700	62.683	0.099
665.800	70.932	0.100
665.900	70.027	0.100
666.000	53.992	0.100
666.100	62.649	0.100
666.200	81.054	0.099
666.300	65.948	0.099
666.400	71.887	0.100
666.500	66.066	0.100
666.600	78.751	0.100
666.700	70.430	0.100
666.800	62.506	0.100
666.900	63.413	0.100
667.000	60.620	0.100
667.100	66.389	0.100
667.200	72.470	0.099
667.300	74.121	0.100
667.400	64.346	0.100
667.500	81.698	0.100
667.600	55.936	0.100
667.700	63.162	0.100
667.800	67.747	0.100
667.900	73.127	0.100
668.000	60.708	0.100
668.100	58.266	0.100
668.200	80.135	0.100
668.300	60.090	0.100
668.400	67.358	0.099
668.500	63.441	0.100
668.600	65.030	0.100
668.700	58.468	0.100
668.800	75.718	0.099
668.900	67.960	0.100
669.000	64.930	0.100
669.100	84.354	0.100
669.200	69.062	0.100
669.300	50.917	0.100
669.400	64.293	0.100
669.500	86.380	0.100
669.600	83.978	0.100
669.700	68.657	0.100
669.800	70.403	0.099
669.900	68.334	0.099
670.000	71.215	0.100
670.100	73.345	0.100
670.200	78.424	0.100
670.300	68.304	0.100
670.400	67.779	0.100
670.500	74.754	0.100
670.600	73.745	0.100
670.700	70.569	0.100
670.800	62.838	0.100
670.900	59.243	0.100
671.000	56.454	0.100
671.100	75.386	0.100
671.200	66.348	0.100
671.300	61.450	0.100
671.400	84.178	0.100
671.500	70.099	0.100
671.600	68.850	0.100
671.700	56.722	0.100
671.800	58.627	0.100
671.900	64.361	0.100
672.000	84.270	0.100
672.100	72.774	0.100
672.200	67.285	0.100
672.300	62.636	0.100
672.400	73.581	0.100
672.500	69.193	0.100
672.600	73.496	0.100
672.700	57.420	0.100
672.800	53.882	0.100
672.900	84.681	0.099
673.000	71.479	0.100
673.100	73.277	0.100
673.200	78.554	0.100
673.300	66.921	0.100
673.400	68.688	0.100
673.500	55.978	0.100
673.600	55.450	0.100
673.700	51.924	0.100
673.800	78.874	0.100
673.900	70.567	0.100
674.000	73.031	0.099
674.100	74.504	0.100
674.200	64.833	0.100
674.300	67.781	0.100
674.400	73.834	0.100
674.500	60.349	0.100
674.600	78.117	0.100
674.700	65.981	0.100
674.800	63.171	0.100
674.900	65.761	0.100
675.000	62.937	0.100
675.100	55.393	0.100
675.200	83.638	0.100
675.300	63.409	0.100
675.400	63.716	0.100
675.500	70.640	0.100
675.600	65.331	0.100
675.700	83.854	0.100
675.800	81.994	0.100
675.900	81.302	0.100
676.000	74.129	0.100
676.100	46.764	0.100
676.200	72.426	0.100
676.300	77.541	0.100
676.400	80.137	0.100
676.500	73.933	0.100
676.600	72.546	0.100
676.700	70.972	0.100
676.800	72.179	0.100
676.900	71.838	0.100
677.000	54.507	0.100
677.100	78.615	0.100
677.200	56.635	0.100
677.300	74.362	0.100
677.400	52.407	0.100
677.500	79.498	0.100
677.600	74.188	0.100
677.700	68.204	0.100
677.800	64.776	0.100
677.900	62.340	0.100
678.000	72.764	0.100
678.100	81.050	0.099
678.200	68.447	0.100
678.300	52.405	0.100
678.400	73.904	0.100
678.500	72.084	0.099
678.600	71.851	0.100
678.700	31.292	0.099
678.800	78.071	0.100
678.900	76.062	0.100
679.000	66.915	0.100
679.100	77.988	0.099
679.200	62.945	0.100
679.300	75.198	0.100
679.400	77.226	0.100
679.500	75.388	0.100
679.600	73.104	0.100
679.700	74.673	0.100
679.800	72.040	0.099
679.900	70.588	0.100
680.000	74.781	0.100
680.100	76.484	0.100
680.200	60.681	0.099
680.300	65.608	0.100
680.400	79.005	0.100
680.500	61.777	0.100
680.600	63.831	0.100
680.700	79.805	0.100
680.800	82.292	0.099
680.900	76.570	0.100
681.000	73.358	0.100
681.100	74.298	0.100
681.200	74.172	0.100
681.300	61.388	0.099
681.400	86.489	0.100
681.500	73.077	0.099
681.600	77.250	0.100
681.700	64.228	0.099
681.800	72.269	0.099
681.900	56.547	0.099
682.000	81.152	0.099
682.100	78.986	0.100
682.200	79.248	0.100
682.300	69.828	0.100
682.400	72.039	0.100
682.500	73.991	0.100
682.600	63.015	0.100
682.700	70.678	0.100
682.800	71.074	0.100
682.900	64.460	0.100
683.000	66.067	0.100
683.100	76.545	0.100
683.200	60.084	0.100
683.300	46.661	0.100
683.400	67.405	0.100
683.500	76.434	0.099
683.600	77.467	0.100
683.700	65.400	0.100
683.800	61.154	0.100
683.900	64.083	0.100
684.000	76.662	0.100
684.100	64.055	0.100
684.200	80.764	0.100
684.300	73.318	0.100
684.400	64.360	0.100
684.500	77.489	0.100
684.600	56.294	0.100
684.700	64.816	0.100
684.800	61.920	0.100
684.900	85.307	0.100
685.000	72.061	0.100
685.100	66.598	0.100
685.200	60.475	0.100
685.300	61.657	0.100
685.400	78.245	0.099
685.500	75.007	0.100
685.600	64.783	0.100
685.700	52.730	0.099
685.800	67.607	0.100
685.900	76.135	0.100
686.000	75.150	0.100
686.100	73.837	0.100
686.200	60.902	0.100
686.300	72.548	0.100
686.400	71.664	0.100
686.500	62.973	0.100
686.600	81.862	0.100
686.700	57.423	0.100
686.800	66.536	0.100
686.900	67.904	0.100
687.000	71.064	0.100
687.100	71.835	0.100
687.200	67.004	0.100
687.300	67.342	0.100
687.400	57.254	0.100
687.500	84.419	0.100
687.600	62.814	0.100
687.700	59.073	0.100
687.800	63.107	0.099
687.900	66.955	0.100
688.000	62.142	0.100
688.100	71.308	0.100
688.200	60.645	0.100
688.300	85.367	0.099
688.400	77.341	0.100
688.500	70.028	0.100
688.600	70.077	0.100
688.700	72.550	0.100
688.800	57.542	0.100
688.900	74.610	0.100
689.000	68.071	0.100
689.100	76.449	0.099
689.200	60.085	0.100
689.300	56.279	0.100
689.400	63.852	0.100
689.500	57.313	0.100
689.600	69.208	0.099
689.700	71.962	0.100
689.800	77.016	0.100
689.900	67.304	0.100
690.000	63.426	0.100
690.100	59.218	0.100
690.200	67.170	0.100
690.300	67.880	0.100
690.400	58.588	0.100
690.500	59.085	0.100
690.600	39.222	0.100
690.700	27.531	0.100
690.800	41.755	0.100
690.900	30.058	0.099
691.000	22.352	0.100
691.100	6.529	0.100
691.200	0.338	0.100
691.300	25.425	0.100
691.400	1.067	0.100
691.500	-23.265	0.100
691.600	-11.012	0.100
691.700	-3.034	0.100
691.800	-9.546	0.099
691.900	-19.942	0.100
692.000	-27.178	0.100
692.100	-21.860	0.100
692.200	-26.251	0.100
692.300	-39.902	0.100
692.400	-26.917	0.100
692.500	-45.059	0.100
692.600	-44.827	0.100
692.700	-43.717	0.099
692.800	-44.616	0.100
692.900	-33.390	0.100
693.000	-49.277	0.100
693.100	-40.424	0.100
693.200	-39.767	0.100
693.300	-41.017	0.100
693.400	-45.344	0.100
693.500	-36.645	0.100
693.600	-41.018	0.099
693.700	-44.394	0.100
693.800	-50.912	0.100
693.900	-42.215	0.100
694.000	-37.067	0.100
694.100	-45.266	0.099
694.200	-50.776	0.100
694.300	-39.493	0.099
694.400	-30.382	0.100
694.500	-39.483	0.100
694.600	-39.720	0.100
694.700	-23.852	0.099
694.800	-29.040	0.100
694.900	-16.447	0.100
695.000	-33.928	0.100
695.100	-27.856	0.100
695.200	-36.758	0.100
695.300	-38.816	0.100
695.400	-32.517	0.100
695.500	-29.538	0.100
695.600	-35.027	0.100
695.700	-46.498	0.100
695.800	-28.185	0.100
695.900	-40.094	0.099
696.000	-23.481	0.100
696.100	-38.418	0.100
696.200	-43.298	0.100
696.300	-23.630	0.100
696.400	-31.131	0.100
696.500	-30.257	0.100
696.600	-37.576	0.100
696.700	-39.396	0.100
696.800	-32.215	0.100
696.900	-28.902	0.099
697.000	-37.596	0.100
697.100	-17.546	0.099
697.200	-27.322	0.100
697.300	-48.601	0.100
697.400	-35.116	0.099
697.500	-36.320	0.099
697.600	-29.281	0.100
697.700	-40.166	0.100
697.800	-35.114	0.099
697.900	-31.777	0.100
698.000	-23.153	0.100
698.100	-29.687	0.100
698.200	-25.782	0.100
698.300	-38.123	0.100
698.400	-27.397	0.100
698.500	-47.720	0.100
698.600	-40.595	0.099
698.700	-35.960	0.100
698.800	-25.298	0.099
698.900	-28.559	0.100
699.000	-30.024	0.100
699.100	-31.298	0.100
699.200	-47.289	0.099
699.300	-24.970	0.100
699.400	-31.211	0.099
699.500	-53.884	0.100
699.600	-28.104	0.100
699.700	-19.897	0.099
699.800	-38.607	0.100
699.900	-53.409	0.100
700.000	-48.487	0.099
700.100	-40.061	0.100
700.200	-28.776	0.100
700.300	-31.286	0.100
700.400	-36.750	0.099
700.500	-28.863	0.100
700.600	-20.014	0.099
700.700	-42.138	0.099
700.800	-48.100	0.099
700.900	-35.504	0.100
701.000	-32.728	0.100
701.100	-55.554	0.100
701.200	-34.420	0.100
701.300	-50.165	0.100
701.400	-52.443	0.099
701.500	-38.371	0.099
701.600	-36.903	0.099
701.700	-23.772	0.100
701.800	-33.924	0.100
701.900	-45.803	0.099
702.000	-33.234	0.100
702.100	-39.462	0.100
702.200	-31.255	0.100
702.300	-29.552	0.100
702.400	-32.843	0.100
702.500	-51.976	0.100
702.600	-24.379	0.100
702.700	-21.083	0.100
702.800	-32.179	0.100
702.900	-32.179	0.100
703.000	-39.317	0.099
703.100	-39.272	0.099
703.200	-37.658	0.100
703.300	-53.399	0.099
703.400	-33.956	0.099
703.500	-39.200	0.100
703.600	-23.413	0.100
703.700	-35.723	0.099
703.800	-31.096	0.100
703.900	-47.029	0.099
704.000	-40.882	0.099
704.100	-42.033	0.100
704.200	-34.139	0.100
704.300	-43.064	0.099
704.400	-40.782	0.099
704.500	-41.317	0.099
704.600	-37.220	0.099
704.700	-37.646	0.099
704.800	-34.494	0.099
704.900	-47.506	0.100
705.000	-51.236	0.100
705.100	-34.288	0.099
705.200	-42.206	0.099
705.300	-28.287	0.100
705.400	-40.821	0.100
705.500	-38.594	0.100
705.600	-52.141	0.099
705.700	-47.196	0.100
705.800	-33.313	0.100
705.900	-43.751	0.099
706.000	-36.856	0.100
706.100	-27.605	0.099
706.200	-51.549	0.100
706.300	-38.486	0.099
706.400	-17.062	0.100
706.500	-53.084	0.100
706.600	-39.679	0.099
706.700	-47.657	0.099
706.800	-35.661	0.100
706.900	-34.825	0.100
707.000	-42.355	0.099
707.100	-41.554	0.099
707.200	-36.080	0.100
707.300	-34.071	0.099
707.400	-37.697	0.099
707.500	-28.020	0.100
707.600	-35.594	0.099
707.700	-41.358	0.099
707.800	-28.784	0.100
707.900	-38.264	0.100
708.000	-50.767	0.100
708.100	-45.838	0.099
708.200	-43.549	0.100
708.300	-35.629	0.100
708.400	-34.507	0.099
708.500	-33.453	0.099
708.600	-52.070	0.100
708.700	-43.624	0.100
708.800	-24.528	0.100
708.900	-21.519	0.100
709.000	-52.347	0.099
709.100	-24.629	0.099
709.200	-33.721	0.100
709.300	-38.223	0.100
709.400	-31.548	0.099
709.500	-37.096	0.099
709.600	-29.292	0.100
709.700	-59.565	0.100
709.800	-30.564	0.099
709.900	-34.360	0.100
710.000	-48.358	0.100
710.100	-35.519	0.100
710.200	-44.316	0.100
710.300	-37.246	0.099
710.400	-39.007	0.100
710.500	-31.538	0.100
710.600	-36.190	0.099
710.700	-42.082	0.100
710.800	-28.290	0.099
710.900	-30.100	0.099
711.000	-43.204	0.099
711.100	-48.337	0.099
711.200	-44.734	0.099
711.300	-35.660	0.100
711.400	-24.596	0.100
711.500	-28.136	0.100
711.600	-35.476	0.099
711.700	-34.188	0.100
711.800	-35.619	0.100
711.900	-28.674	0.100
712.000	-42.506	0.100
712.100	-43.488	0.100
712.200	-40.641	0.099
712.300	-46.010	0.100
712.400	-43.358	0.100
712.500	-30.905	0.100
712.600	-39.426	0.099
712.700	-22.261	0.100
712.800	-37.260	0.099
712.900	-32.964	0.099
713.000	-50.720	0.099
713.100	-32.906	0.100
713.200	-44.066	0.100
713.300	-35.684	0.100
713.400	-26.967	0.100
713.500	-50.186	0.099
713.600	-36.415	0.099
713.700	-30.857	0.100
713.800	-47.618	0.099
713.900	-25.749	0.099
714.000	-39.455	0.100
714.100	-33.065	0.100
714.200	-36.372	0.099
714.300	-38.089	0.099
714.400	-39.018	0.099
714.500	-55.365	0.099
714.600	-41.281	0.099
714.700	-23.157	0.100
714.800	-35.696	0.099
714.900	-30.018	0.100
715.000	-35.736	0.100
715.100	-19.332	0.100
715.200	-35.232	0.100
715.300	-33.741	0.099
715.400	-35.245	0.100
715.500	-34.186	0.099
715.600	-49.216	0.099
715.700	-38.133	0.100
715.800	-45.127	0.099
715.900	-30.929	0.100
716.000	-36.230	0.100
716.100	-23.937	0.100
716.200	-27.681	0.100
716.300	-46.443	0.100
716.400	-32.644	0.100
716.500	-31.721	0.100
716.600	-40.543	0.100
716.700	-57.298	0.100
716.800	-15.010	0.099
716.900	-27.352	0.099
717.000	-17.967	0.100
717.100	-30.954	0.100
717.200	-32.368	0.099
717.300	-29.727	0.099
717.400	-33.923	0.099
717.500	-45.383	0.099
717.600	-29.359	0.100
717.700	-46.486	0.099
717.800	-58.911	0.100
717.900	-42.334	0.099
718.000	-17.005	0.100
718.100	-47.155	0.100
718.200	-46.993	0.100
718.300	-34.479	0.100
718.400	-32.915	0.100
718.500	-28.741	0.100
718.600	-37.755	0.100
718.700	-55.945	0.100
718.800	-42.304	0.100
718.900	-27.446	0.100
719.000	-50.645	0.100
719.100	-30.886	0.100
719.200	-29.901	0.100
719.300	-34.670	0.100
719.400	-39.917	0.099
719.500	-31.033	0.099
719.600	-36.303	0.100
719.700	-44.538	0.099
719.800	-25.037	0.100
719.900	-46.465	0.100
720.000	-23.936	0.100
720.100	-47.336	0.100
720.200	-25.240	0.100
720.300	-52.786	0.100
720.400	-35.295	0.099
720.500	-23.101	0.099
720.600	-44.950	0.099
720.700	-35.844	0.100
720.800	-32.146	0.099
720.900	-39.801	0.100
721.000	-42.603	0.099
721.100	-46.986	0.099
721.200	-34.233	0.099
721.300	-48.016	0.099
721.400	-35.767	0.100
721.500	-31.438	0.100
721.600	-45.570	0.100
721.700	-47.889	0.100
721.800	-13.431	0.100
721.900	-40.706	0.100
722.000	-34.248	0.100
722.100	-37.673	0.099
722.200	-33.877	0.100
722.300	-35.367	0.100
722.400	-21.787	0.100
722.500	-29.035	0.099
722.600	-31.964	0.100
722.700	-38.482	0.100
722.800	-38.597	0.099
722.900	-32.642	0.100
723.000	-41.751	0.100
723.100	-30.714	0.099
723.200	-36.460	0.100
723.300	-43.016	0.100
723.400	-37.199	0.099
723.500	-27.827	0.100
723.600	-50.421	0.100
723.700	-30.261	0.100
723.800	-38.709	0.099
723.900	-49.968	0.099
724.000	-14.047	0.100
724.100	-29.538	0.100
724.200	-23.196	0.099
724.300	-49.000	0.100
724.400	-46.268	0.100
724.500	-34.013	0.100
724.600	-40.152	0.100
724.700	-21.498	0.100
724.800	-23.028	0.100
724.900	-34.347	0.100
725.000	-32.797	0.099
725.100	-31.521	0.100
725.200	-32.246	0.100
725.300	-47.077	0.099
725.400	-19.690	0.099
725.500	-19.835	0.100
725.600	-39.266	0.099
725.700	-22.019	0.100
725.800	-29.916	0.100
725.900	-33.767	0.100
726.000	-29.364	0.100
726.100	-31.138	0.100
726.200	-32.363	0.100
726.300	-26.148	0.100
726.400	-34.138	0.099
726.500	-30.877	0.100
726.600	-33.702	0.099
726.700	-40.756	0.100
726.800	-33.860	0.100
726.900	-33.924	0.100
727.000	-32.532	0.100
727.100	-33.638	0.099
727.200	-47.804	0.100
727.300	-27.926	0.099
727.400	-42.869	0.100
727.500	-28.894	0.100
727.600	-28.114	0.100
727.700	-29.534	0.100
727.800	-36.619	0.100
727.900	-41.596	0.100
728.000	-28.497	0.100
728.100	-40.744	0.100
728.200	-22.816	0.100
728.300	-15.148	0.100
728.400	-22.188	0.100
728.500	-40.909	0.100
728.600	-39.274	0.100
728.700	-41.290	0.099
728.800	-30.960	0.100
728.900	-41.641	0.099
729.000	-32.286	0.100
729.100	-40.802	0.100
729.200	-43.651	0.099
729.300	-32.852	0.099
729.400	-45.008	0.100
729.500	-35.460	0.100
729.600	-11.905	0.100
729.700	-36.875	0.099
729.800	-33.879	0.100
729.900	-41.875	0.099
730.000	-35.344	0.099
730.100	-26.571	0.099
730.200	-27.502	0.100
730.300	-26.995	0.100
730.400	-37.623	0.100
730.500	-34.304	0.099
730.600	-41.055	0.099
730.700	-39.825	0.099
730.800	-42.915	0.099
730.900	-25.813	0.099
731.000	-35.998	0.099
731.100	-35.509	0.100
731.200	-46.424	0.099
731.300	-34.960	0.100
731.400	-43.037	0.099
731.500	-31.335	0.099
731.600	-27.896	0.100
731.700	-28.624	0.100
731.800	-33.151	0.100
731.900	-38.091	0.099
732.000	-13.489	0.100
732.100	-56.002	0.099
732.200	-59.032	0.099
732.300	-29.691	0.099
732.400	-39.778	0.099
732.500	-12.161	0.099
732.600	-35.075	0.100
732.700	-29.910	0.099
732.800	-47.924	0.099
732.900	-27.697	0.099
733.000	-22.244	0.099
733.100	-12.609	0.099
733.200	-25.475	0.099
733.300	-39.469	0.099
733.400	-40.603	0.099
733.500	-38.644	0.099
733.600	-35.967	0.099
733.700	-30.310	0.099
733.800	-37.846	0.100
733.900	-37.238	0.099
734.000	-40.294	0.100
734.100	-34.314	0.099
734.200	-29.184	0.099
734.300	-36.823	0.100
734.400	-28.223	0.100
734.500	-39.145	0.099
734.600	-27.116	0.100
734.700	-30.278	0.099
734.800	-21.899	0.099
734.900	-28.041	0.099
735.000	-21.659	0.099
735.100	-24.140	0.100
735.200	-25.075	0.100
735.300	-44.191	0.100
735.400	-32.247	0.100
735.500	-27.310	0.099
735.600	-33.446	0.099
735.700	-35.003	0.099
735.800	-22.777	0.099
735.900	-25.973	0.100
736.000	-40.871	0.099
736.100	-28.409	0.099
736.200	-22.594	0.099
736.300	-23.690	0.100
736.400	-46.729	0.099
736.500	-36.574	0.100
736.600	-44.137	0.100
736.700	-28.746	0.100
736.800	-55.157	0.100
736.900	-18.052	0.099
737.000	-23.579	0.099
737.100	-44.304	0.099
737.200	-47.409	0.099
737.300	-29.027	0.099
737.400	-18.023	0.100
737.500	-28.319	0.100
737.600	-17.185	0.099
737.700	-39.399	0.099
737.800	-36.777	0.100
737.900	-44.901	0.099
738.000	-12.244	0.100
738.100	-16.717	0.100
738.200	-32.223	0.100
738.300	-29.433	0.099
738.400	-33.355	0.100
738.500	-38.740	0.100
738.600	-38.540	0.100
738.700	-43.051	0.099
738.800	-33.181	0.099
738.900	-38.458	0.099
739.000	-38.401	0.100
739.100	-27.149	0.100
739.200	-47.355	0.099
739.300	-41.163	0.099
739.400	-23.671	0.100
739.500	-26.073	0.100
739.600	-30.918	0.099
739.700	-26.519	0.100
739.800	-27.650	0.099
739.900	-43.136	0.099
740.000	-27.869	0.099
740.100	-23.927	0.099
740.200	-42.034	0.100
740.300	-35.108	0.099
740.400	-35.030	0.099
740.500	-20.792	0.099
740.600	-41.357	0.100
740.700	-37.413	0.099
740.800	-33.842	0.100
740.900	-28.280	0.100
741.000	-18.088	0.099
741.100	-42.786	0.100
741.200	-24.743	0.100
741.300	-35.789	0.100
741.400	-31.061	0.100
741.500	-44.444	0.100
741.600	-31.663	0.100
741.700	-32.832	0.099
741.800	-24.495	0.100
741.900	-30.386	0.100
742.000	-34.251	0.100
742.100	-19.223	0.099
742.200	-31.899	0.100
742.300	-38.999	0.099
742.400	-21.849	0.100
742.500	-42.430	0.099
742.600	-9.639	0.099
742.700	-27.209	0.099
742.800	-32.887	0.100
742.900	-24.903	0.099
743.000	-46.931	0.099
743.100	-21.531	0.099
743.200	-32.464	0.100
743.300	-27.678	0.100
743.400	-24.851	0.100
743.500	-37.756	0.099
743.600	-27.673	0.099
743.700	-30.375	0.099
743.800	-26.339	0.099
743.900	-34.390	0.099
744.000	-38.108	0.099
744.100	-38.235	0.100
744.200	-24.971	0.100
744.300	-25.915	0.100
744.400	-33.790	0.099
744.500	-28.297	0.100
744.600	-25.793	0.100
744.700	-37.079	0.100
744.800	-15.237	0.100
744.900	-20.401	0.100
745.000	-26.121	0.100
745.100	-38.172	0.100
745.200	-40.377	0.100
745.300	-33.737	0.099
745.400	-17.501	0.099
745.500	-32.763	0.100
745.600	-30.366	0.099
745.700	-34.845	0.099
745.800	-37.432	0.099
745.900	-34.867	0.099
746.000	-27.334	0.099
746.100	-41.227	0.099
746.200	-21.203	0.100
746.300	-32.737	0.100
746.400	-30.650	0.099
746.500	-16.185	0.099
746.600	-36.298	0.099
746.700	-47.936	0.099
746.800	-28.884	0.099
746.900	-27.614	0.099
747.000	-28.710	0.099
747.100	-39.699	0.099
747.200	-25.167	0.099
747.300	-29.721	0.099
747.400	-17.104	0.100
747.500	-9.476	0.100
747.600	-17.578	0.100
747.700	-32.518	0.100
747.800	-37.070	0.099
747.900	-33.078	0.100
748.000	-29.717	0.100
748.100	-35.631	0.099
748.200	-27.509	0.100
748.300	-23.706	0.100
748.400	-27.656	0.100
748.500	-25.737	0.099
748.600	-36.433	0.099
748.700	-18.412	0.099
748.800	-27.096	0.099
748.900	-34.117	0.099
749.000	-27.660	0.100
749.100	-26.457	0.099
749.200	-29.157	0.100
749.300	-17.343	0.099
749.400	-44.838	0.099
749.500	-39.756	0.099
749.600	-23.979	0.099
749.700	-28.852	0.100
749.800	-29.613	0.099
749.900	-37.982	0.099
750.000	-32.923	0.099
750.100	-28.914	0.099
750.200	-31.434	0.099
750.300	-31.249	0.099
750.400	-33.237	0.099
750.500	-24.568	0.099
750.600	-44.543	0.100
750.700	-31.558	0.100
750.800	-16.489	0.100
750.900	-42.999	0.099
751.000	-23.732	0.099
751.100	-29.762	0.100
751.200	-31.750	0.100
751.300	-42.122	0.100
751.400	-26.496	0.100
751.500	-21.579	0.100
751.600	-34.472	0.100
751.700	-33.542	0.100
751.800	-30.178	0.100
751.900	-25.632	0.099
752.000	-22.056	0.100
752.100	-26.988	0.100
752.200	-27.870	0.100
752.300	-31.003	0.100
752.400	-30.307	0.100
752.500	-30.418	0.100
752.600	-18.283	0.100
752.700	-26.351	0.099
752.800	-25.980	0.100
752.900	-25.926	0.099
753.000	-27.550	0.100
753.100	-35.804	0.099
753.200	-27.212	0.099
753.300	-25.193	0.100
753.400	-24.527	0.099
753.500	-32.622	0.100
753.600	-24.287	0.099
753.700	-26.235	0.100
753.800	-32.472	0.100
753.900	-24.547	0.100
754.000	-31.567	0.100
754.100	-39.443	0.099
754.200	-24.144	0.100
754.300	-11.517	0.100
754.400	-37.335	0.100
754.500	-31.409	0.100
754.600	-32.910	0.099
754.700	-28.629	0.100
754.800	-28.273	0.100
754.900	-15.260	0.100
755.000	-17.120	0.100
755.100	-33.163	0.100
755.200	-25.478	0.100
755.300	-13.854	0.100
755.400	-23.124	0.100
755.500	-29.140	0.100
755.600	-41.944	0.099
755.700	-24.609	0.099
755.800	-26.322	0.099
755.900	-22.319	0.099
756.000	-30.026	0.099
756.100	-32.462	0.100
756.200	-26.382	0.099
756.300	-30.576	0.100
756.400	-25.901	0.099
756.500	-29.149	0.099
756.600	-28.131	0.099
756.700	-28.517	0.100
756.800	-43.673	0.099
756.900	-27.895	0.100
757.000	-27.392	0.099
757.100	-36.351	0.099
757.200	-23.994	0.099
757.300	-24.802	0.100
757.400	-32.517	0.100
757.500	-22.403	0.099
757.600	-30.763	0.100
757.700	-38.491	0.099
757.800	-31.723	0.099
757.900	-31.633	0.100
758.000	-35.152	0.099
758.100	-27.486	0.100
758.200	-25.668	0.100
758.300	-24.501	0.100
758.400	-17.474	0.100
758.500	-32.432	0.100
758.600	-24.502	0.099
758.700	-29.436	0.100
758.800	-24.504	0.100
758.900	-16.301	0.100
759.000	-41.510	0.100
759.100	-20.394	0.099
759.200	-23.140	0.099
759.300	-26.801	0.100
759.400	-43.513	0.099
759.500	-21.714	0.100
759.600	-40.881	0.099
759.700	-29.292	0.100
759.800	-27.621	0.099
759.900	-24.052	0.099
760.000	-41.781	0.099
760.100	-25.918	0.099
760.200	-18.334	0.099
760.300	-38.228	0.099
760.400	-20.885	0.099
760.500	-35.006	0.099
760.600	-14.857	0.100
760.700	-31.152	0.099
760.800	-34.728	0.099
760.900	-20.844	0.100
761.000	-25.044	0.099
761.100	-30.238	0.099
761.200	-27.530	0.099
761.300	-16.874	0.099
761.400	-21.823	0.100
761.500	-36.540	0.100
761.600	-30.415	0.100
761.700	-28.646	0.100
761.800	-31.866	0.100
761.900	-25.247	0.099
762.000	-16.965	0.099
762.100	-20.324	0.100
762.200	-33.832	0.100
762.300	-41.254	0.099
762.400	-20.203	0.099
762.500	-42.900	0.099
762.600	-30.492	0.099
762.700	-20.518	0.099
762.800	-34.544	0.099
762.900	-24.596	0.099
763.000	-33.627	0.100
763.100	-21.269	0.099
763.200	-17.429	0.099
763.300	-41.606	0.099
763.400	-22.156	0.099
763.500	-24.057	0.099
763.600	-29.457	0.099
763.700	-19.782	0.099
763.800	-15.081	0.099
763.900	-28.341	0.099
764.000	-45.149	0.099
764.100	-23.657	0.099
764.200	-21.614	0.099
764.300	-15.888	0.099
764.400	-29.629	0.099
764.500	-47.417	0.099
764.600	-33.236	0.099
764.700	-32.036	0.099
764.800	-24.085	0.100
764.900	-12.866	0.099
765.000	-6.946	0.100
765.100	-33.905	0.100
765.200	-29.331	0.100
765.300	-41.421	0.099
765.400	-20.499	0.099
765.500	-26.315	0.100
765.600	-47.663	0.099
765.700	-29.114	0.099
765.800	-14.844	0.099
765.900	-22.945	0.099
766.000	-18.560	0.100
766.100	-32.677	0.099
766.200	-15.803	0.100
766.300	-29.796	0.100
766.400	-27.549	0.100
766.500	-24.547	0.099
766.600	-40.448	0.099
766.700	-29.803	0.100
766.800	-27.610	0.099
766.900	-19.515	0.099
767.000	-28.834	0.099
767.100	-23.043	0.100
767.200	-24.485	0.099
767.300	-22.102	0.099
767.400	-31.493	0.099
767.500	-24.689	0.100
767.600	-21.763	0.099
767.700	-30.232	0.099
767.800	-27.206	0.099
767.900	-27.678	0.099
768.000	-34.850	0.099
768.100	-2.103	0.100
768.200	-39.202	0.100
768.300	-35.908	0.100
768.400	-25.797	0.100
768.500	-38.781	0.099
768.600	-11.107	0.100
768.700	-32.365	0.099
768.800	-21.456	0.099
768.900	-25.590	0.099
769.000	-32.732	0.100
769.100	-23.868	0.099
769.200	-12.316	0.100
769.300	-29.025	0.100
769.400	-22.707	0.099
769.500	-22.035	0.099
769.600	-26.161	0.099
769.700	-37.268	0.099
769.800	-40.454	0.100
769.900	-22.255	0.100
770.000	-24.547	0.099
770.100	-32.190	0.099
770.200	-25.400	0.099
770.300	-17.916	0.099
770.400	-25.799	0.100
770.500	-27.113	0.099
770.600	-54.730	0.099
770.700	-11.510	0.099
770.800	-23.896	0.099
770.900	-20.662	0.100
771.000	-42.589	0.099
771.100	-30.361	0.100
771.200	-35.277	0.099
771.300	-29.287	0.100
771.400	-33.006	0.100
771.500	-15.952	0.099
771.600	-30.605	0.100
771.700	-14.182	0.100
771.800	-29.282	0.100
771.900	-29.899	0.100
772.000	-14.992	0.099
772.100	-30.600	0.100
772.200	-25.598	0.100
772.300	-19.584	0.100
772.400	-18.503	0.100
772.500	-47.251	0.100
772.600	-31.676	0.100
772.700	-23.457	0.100
772.800	-32.190	0.100
772.900	-19.478	0.100
773.000	-27.369	0.100
773.100	-20.907	0.100
773.200	-30.588	0.100
773.300	-31.535	0.099
773.400	-18.388	0.100
773.500	-5.853	0.100
773.600	-37.461	0.099
773.700	-18.944	0.099
773.800	-34.924	0.100
773.900	-23.355	0.100
774.000	-21.286	0.100
774.100	-7.338	0.099
774.200	-39.133	0.099
774.300	-34.765	0.099
774.400	-33.004	0.099
774.500	-21.399	0.100
774.600	-25.384	0.099
774.700	-34.354	0.099
774.800	-27.535	0.100
774.900	-16.742	0.100
775.000	-19.556	0.100
775.100	-22.722	0.099
775.200	-35.907	0.100
775.300	-38.035	0.100
775.400	-32.161	0.100
775.500	-25.251	0.100
775.600	-36.041	0.100
775.700	-27.902	0.100
775.800	-25.357	0.100
775.900	-36.244	0.100
776.000	-21.167	0.100
776.100	-24.363	0.099
776.200	-34.329	0.100
776.300	-18.674	0.099
776.400	-16.038	0.100
776.500	-17.096	0.100
776.600	-21.026	0.100
776.700	-24.608	0.100
776.800	-34.918	0.100
776.900	-25.834	0.100
777.000	-31.738	0.100
777.100	-32.899	0.100
777.200	-12.955	0.099
777.300	-10.930	0.099
777.400	-25.118	0.100
777.500	-32.096	0.099
777.600	-25.204	0.100
777.700	-22.543	0.099
777.800	-33.990	0.099
777.900	-33.906	0.099
778.000	-30.370	0.100
778.100	-19.871	0.100
778.200	-32.296	0.100
778.300	-20.418	0.100
778.400	-37.653	0.099
778.500	-26.797	0.099
778.600	-29.484	0.099
778.700	-18.513	0.099
778.800	-9.391	0.100
778.900	-14.419	0.100
779.000	-53.852	0.099
779.100	-24.032	0.100
779.200	-13.866	0.099
779.300	-22.503	0.100
779.400	-19.328	0.099
779.500	-20.984	0.100
779.600	-42.578	0.100
779.700	-25.999	0.099
779.800	-24.197	0.100
779.900	-21.744	0.099
780.000	-19.499	0.100
780.100	-48.298	0.100
780.200	-21.170	0.100
780.300	-19.240	0.100
780.400	-15.383	0.099
780.500	8.456	0.099
780.600	16.585	0.099
780.700	18.203	0.099
780.800	13.788	0.099
780.900	21.063	0.099
781.000	22.143	0.100
781.100	22.661	0.099
781.200	28.991	0.099
781.300	9.609	0.099
781.400	27.991	0.099
781.500	17.038	0.099
781.600	21.081	0.099
781.700	33.768	0.100
781.800	11.755	0.099
781.900	29.903	0.099
782.000	15.276	0.099
782.100	32.477	0.100
782.200	7.051	0.100
782.300	15.331	0.099
782.400	21.130	0.099
782.500	9.607	0.099
782.600	24.526	0.100
782.700	15.378	0.099
782.800	32.135	0.099
782.900	5.880	0.099
783.000	25.986	0.100
783.100	22.865	0.100
783.200	20.003	0.100
783.300	26.758	0.100
783.400	28.054	0.100
783.500	13.944	0.100
783.600	18.275	0.100
783.700	15.885	0.100
783.800	8.718	0.099
783.900	0.898	0.100
784.000	21.463	0.099
784.100	30.472	0.099
784.200	15.681	0.099
784.300	7.483	0.099
784.400	10.598	0.099
784.500	15.956	0.099
784.600	2.311	0.099
784.700	19.550	0.099
784.800	-1.326	0.099
784.900	0.173	0.099
785.000	10.915	0.099
785.100	43.373	0.100
785.200	1.193	0.099
785.300	21.235	0.099
785.400	25.869	0.099
785.500	4.502	0.099
785.600	18.982	0.099
785.700	7.720	0.099
785.800	22.388	0.099
785.900	25.060	0.099
786.000	20.180	0.099
786.100	15.570	0.099
786.200	23.395	0.099
786.300	37.333	0.099
786.400	16.051	0.099
786.500	31.207	0.099
786.600	18.721	0.099
786.700	29.313	0.099
786.800	22.341	0.099
786.900	28.043	0.099
787.000	17.574	0.099
787.100	31.027	0.099
787.200	28.158	0.099
787.300	16.933	0.099
787.400	35.359	0.099
787.500	35.686	0.100
787.600	18.019	0.099
787.700	50.326	0.099
787.800	34.003	0.099
787.900	14.130	0.099
788.000	47.511	0.099
788.100	30.265	0.099
788.200	27.772	0.099
788.300	22.696	0.099
788.400	30.662	0.099
788.500	28.648	0.099
788.600	36.994	0.099
788.700	34.057	0.099
788.800	36.208	0.099
788.900	31.289	0.099
789.000	38.264	0.099
789.100	28.578	0.100
789.200	35.008	0.099
789.300	40.836	0.099
789.400	19.101	0.099
789.500	39.904	0.099
789.600	32.785	0.099
789.700	27.820	0.099
789.800	25.051	0.099
789.900	39.666	0.099
790.000	43.220	0.099
790.100	43.284	0.099
790.200	37.955	0.099
790.300	36.115	0.099
790.400	19.575	0.099
790.500	51.403	0.099
790.600	31.056	0.099
790.700	39.903	0.099
790.800	46.752	0.100
790.900	38.206	0.099
791.000	36.483	0.099
791.100	37.935	0.099
791.200	40.074	0.099
791.300	53.438	0.099
791.400	46.949	0.099
791.500	42.673	0.099
791.600	43.140	0.099
791.700	32.409	0.100
791.800	47.155	0.100
791.900	33.480	0.100
792.000	40.001	0.099
792.100	32.887	0.099
792.200	19.662	0.100
792.300	55.937	0.100
792.400	45.167	0.099
792.500	49.625	0.099
792.600	37.177	0.099
792.700	21.345	0.099
792.800	26.955	0.099
792.900	39.984	0.100
793.000	59.994	0.099
793.100	45.734	0.099
793.200	45.062	0.099
793.300	42.737	0.099
793.400	20.290	0.099
793.500	45.622	0.099
793.600	46.440	0.099
793.700	38.557	0.100
793.800	25.471	0.099
793.900	51.907	0.099
794.000	50.514	0.099
794.100	45.073	0.099
794.200	43.950	0.099
794.300	49.296	0.100
794.400	40.175	0.099
794.500	50.346	0.099
794.600	47.293	0.099
794.700	40.823	0.099
794.800	41.243	0.099
794.900	48.599	0.099
795.000	36.477	0.099
795.100	43.964	0.099
795.200	39.878	0.099
795.300	53.567	0.099
795.400	52.519	0.099
795.500	46.641	0.099
795.600	49.670	0.099
795.700	46.385	0.099
795.800	35.994	0.099
795.900	57.008	0.099
796.000	59.076	0.099
796.100	38.142	0.100
796.200	37.122	0.099
796.300	45.193	0.099
796.400	44.283	0.099
796.500	47.952	0.099
796.600	50.122	0.099
796.700	59.035	0.099
796.800	48.266	0.099
796.900	52.288	0.099
797.000	49.893	0.099
797.100	50.425	0.100
797.200	53.376	0.099
797.300	49.873	0.099
797.400	56.213	0.099
797.500	55.644	0.099
797.600	43.841	0.099
797.700	34.193	0.099
797.800	51.252	0.099
797.900	68.163	0.099
798.000	41.097	0.099
798.100	55.191	0.099
798.200	57.447	0.100
798.300	53.153	0.099
798.400	50.886	0.100
798.500	51.046	0.099
798.600	50.302	0.100
798.700	45.979	0.099
798.800	38.648	0.099
798.900	47.411	0.099
799.000	62.221	0.099
799.100	46.790	0.099
799.200	51.135	0.099
799.300	48.716	0.099
799.400	41.490	0.099
799.500	58.182	0.099
799.600	48.076	0.099
799.700	49.079	0.099
799.800	54.591	0.099
799.900	64.253	0.099
800.000	58.042	0.099
